<?xml version="1.0" encoding="UTF-8"?>
<?xml-stylesheet type="text/xsl" href="define2-0-0.xsl"?>
<ODM
     xmlns:xlink="http://www.w3.org/1999/xlink"
     xmlns="http://www.cdisc.org/ns/odm/v1.3"
     xmlns:def="http://www.cdisc.org/ns/def/v2.0"
     xmlns:arm="http://www.cdisc.org/ns/arm/v1.0"
     ODMVersion="1.3.2"
     FileType="Snapshot"
     FileOID="TDF_ADaM.ADaM-IG.1.1"
     CreationDateTime="2023-05-01T17:47:59Z"
     SourceSystem="Pinnacle 21 Enterprise"
     SourceSystemVersion="5.2.0">
   <Study OID="TDF_ADaM.ADaM-IG.1.1">
      <GlobalVariables>
         <StudyName>TDF_ADaM</StudyName>
         <StudyDescription>Test datasets created by updating existing CDISCPILOT ADaM datasets</StudyDescription>
         <ProtocolName>TDF_Datasets</ProtocolName>
      </GlobalVariables>
      <MetaDataVersion OID="MDV.TDF_ADaM.ADaM-IG.1.1" Name="Study TDF_ADaM Data Definitions"
                       def:DefineVersion="2.0.0"
                       def:StandardName="ADaM-IG"
                       def:StandardVersion="1.1">
         <def:SupplementalDoc>
            <def:DocumentRef leafID="LF.Suppdoc"/>
         </def:SupplementalDoc>
         <def:ValueListDef OID="VL.ADADAS.AVAL">
            <ItemRef ItemOID="IT.ADADAS.AVAL.ADADAS.PARAMCD.EQ.ACITM01" OrderNumber="1"
                     Mandatory="No"
                     MethodOID="MT.ADADAS.AVAL">
               <def:WhereClauseRef WhereClauseOID="WC.ADADAS.PARAMCD.EQ.ACITM01"/>
            </ItemRef>
            <ItemRef ItemOID="IT.ADADAS.AVAL.ADADAS.PARAMCD.EQ.ACITM02" OrderNumber="2"
                     Mandatory="No"
                     MethodOID="MT.ADADAS.AVAL">
               <def:WhereClauseRef WhereClauseOID="WC.ADADAS.PARAMCD.EQ.ACITM02"/>
            </ItemRef>
            <ItemRef ItemOID="IT.ADADAS.AVAL.ADADAS.PARAMCD.EQ.ACITM03" OrderNumber="3"
                     Mandatory="No"
                     MethodOID="MT.ADADAS.AVAL">
               <def:WhereClauseRef WhereClauseOID="WC.ADADAS.PARAMCD.EQ.ACITM03"/>
            </ItemRef>
            <ItemRef ItemOID="IT.ADADAS.AVAL.ADADAS.PARAMCD.EQ.ACITM04" OrderNumber="4"
                     Mandatory="No"
                     MethodOID="MT.ADADAS.AVAL">
               <def:WhereClauseRef WhereClauseOID="WC.ADADAS.PARAMCD.EQ.ACITM04"/>
            </ItemRef>
            <ItemRef ItemOID="IT.ADADAS.AVAL.ADADAS.PARAMCD.EQ.ACITM05" OrderNumber="5"
                     Mandatory="No"
                     MethodOID="MT.ADADAS.AVAL">
               <def:WhereClauseRef WhereClauseOID="WC.ADADAS.PARAMCD.EQ.ACITM05"/>
            </ItemRef>
            <ItemRef ItemOID="IT.ADADAS.AVAL.ADADAS.PARAMCD.EQ.ACITM06" OrderNumber="6"
                     Mandatory="No"
                     MethodOID="MT.ADADAS.AVAL">
               <def:WhereClauseRef WhereClauseOID="WC.ADADAS.PARAMCD.EQ.ACITM06"/>
            </ItemRef>
            <ItemRef ItemOID="IT.ADADAS.AVAL.ADADAS.PARAMCD.EQ.ACITM07" OrderNumber="7"
                     Mandatory="No"
                     MethodOID="MT.ADADAS.AVAL">
               <def:WhereClauseRef WhereClauseOID="WC.ADADAS.PARAMCD.EQ.ACITM07"/>
            </ItemRef>
            <ItemRef ItemOID="IT.ADADAS.AVAL.ADADAS.PARAMCD.EQ.ACITM08" OrderNumber="8"
                     Mandatory="No"
                     MethodOID="MT.ADADAS.AVAL">
               <def:WhereClauseRef WhereClauseOID="WC.ADADAS.PARAMCD.EQ.ACITM08"/>
            </ItemRef>
            <ItemRef ItemOID="IT.ADADAS.AVAL.ADADAS.PARAMCD.EQ.ACITM09" OrderNumber="9"
                     Mandatory="No"
                     MethodOID="MT.ADADAS.AVAL">
               <def:WhereClauseRef WhereClauseOID="WC.ADADAS.PARAMCD.EQ.ACITM09"/>
            </ItemRef>
            <ItemRef ItemOID="IT.ADADAS.AVAL.ADADAS.PARAMCD.EQ.ACITM10" OrderNumber="10"
                     Mandatory="No"
                     MethodOID="MT.ADADAS.AVAL">
               <def:WhereClauseRef WhereClauseOID="WC.ADADAS.PARAMCD.EQ.ACITM10"/>
            </ItemRef>
            <ItemRef ItemOID="IT.ADADAS.AVAL.ADADAS.PARAMCD.EQ.ACITM11" OrderNumber="11"
                     Mandatory="No"
                     MethodOID="MT.ADADAS.AVAL">
               <def:WhereClauseRef WhereClauseOID="WC.ADADAS.PARAMCD.EQ.ACITM11"/>
            </ItemRef>
            <ItemRef ItemOID="IT.ADADAS.AVAL.ADADAS.PARAMCD.EQ.ACITM12" OrderNumber="12"
                     Mandatory="No"
                     MethodOID="MT.ADADAS.AVAL">
               <def:WhereClauseRef WhereClauseOID="WC.ADADAS.PARAMCD.EQ.ACITM12"/>
            </ItemRef>
            <ItemRef ItemOID="IT.ADADAS.AVAL.ADADAS.PARAMCD.EQ.ACITM13" OrderNumber="13"
                     Mandatory="No"
                     MethodOID="MT.ADADAS.AVAL">
               <def:WhereClauseRef WhereClauseOID="WC.ADADAS.PARAMCD.EQ.ACITM13"/>
            </ItemRef>
            <ItemRef ItemOID="IT.ADADAS.AVAL.ADADAS.PARAMCD.EQ.ACITM14" OrderNumber="14"
                     Mandatory="No"
                     MethodOID="MT.ADADAS.AVAL">
               <def:WhereClauseRef WhereClauseOID="WC.ADADAS.PARAMCD.EQ.ACITM14"/>
            </ItemRef>
            <ItemRef ItemOID="IT.ADADAS.AVAL.ADADAS.PARAMCD.EQ.ACTOT" OrderNumber="15"
                     Mandatory="No"
                     MethodOID="MT.ADADAS.AVAL.ACTOT">
               <def:WhereClauseRef WhereClauseOID="WC.ADADAS.PARAMCD.EQ.ACTOT"/>
            </ItemRef>
         </def:ValueListDef>
         <def:WhereClauseDef OID="WC.ADADAS.PARAMCD.EQ.ACITM01">
            <RangeCheck SoftHard="Soft" def:ItemOID="IT.ADADAS.PARAMCD" Comparator="EQ">
               <CheckValue>ACITM01</CheckValue>
            </RangeCheck>
         </def:WhereClauseDef>
         <def:WhereClauseDef OID="WC.ADADAS.PARAMCD.EQ.ACITM02">
            <RangeCheck SoftHard="Soft" def:ItemOID="IT.ADADAS.PARAMCD" Comparator="EQ">
               <CheckValue>ACITM02</CheckValue>
            </RangeCheck>
         </def:WhereClauseDef>
         <def:WhereClauseDef OID="WC.ADADAS.PARAMCD.EQ.ACITM03">
            <RangeCheck SoftHard="Soft" def:ItemOID="IT.ADADAS.PARAMCD" Comparator="EQ">
               <CheckValue>ACITM03</CheckValue>
            </RangeCheck>
         </def:WhereClauseDef>
         <def:WhereClauseDef OID="WC.ADADAS.PARAMCD.EQ.ACITM04">
            <RangeCheck SoftHard="Soft" def:ItemOID="IT.ADADAS.PARAMCD" Comparator="EQ">
               <CheckValue>ACITM04</CheckValue>
            </RangeCheck>
         </def:WhereClauseDef>
         <def:WhereClauseDef OID="WC.ADADAS.PARAMCD.EQ.ACITM05">
            <RangeCheck SoftHard="Soft" def:ItemOID="IT.ADADAS.PARAMCD" Comparator="EQ">
               <CheckValue>ACITM05</CheckValue>
            </RangeCheck>
         </def:WhereClauseDef>
         <def:WhereClauseDef OID="WC.ADADAS.PARAMCD.EQ.ACITM06">
            <RangeCheck SoftHard="Soft" def:ItemOID="IT.ADADAS.PARAMCD" Comparator="EQ">
               <CheckValue>ACITM06</CheckValue>
            </RangeCheck>
         </def:WhereClauseDef>
         <def:WhereClauseDef OID="WC.ADADAS.PARAMCD.EQ.ACITM07">
            <RangeCheck SoftHard="Soft" def:ItemOID="IT.ADADAS.PARAMCD" Comparator="EQ">
               <CheckValue>ACITM07</CheckValue>
            </RangeCheck>
         </def:WhereClauseDef>
         <def:WhereClauseDef OID="WC.ADADAS.PARAMCD.EQ.ACITM08">
            <RangeCheck SoftHard="Soft" def:ItemOID="IT.ADADAS.PARAMCD" Comparator="EQ">
               <CheckValue>ACITM08</CheckValue>
            </RangeCheck>
         </def:WhereClauseDef>
         <def:WhereClauseDef OID="WC.ADADAS.PARAMCD.EQ.ACITM09">
            <RangeCheck SoftHard="Soft" def:ItemOID="IT.ADADAS.PARAMCD" Comparator="EQ">
               <CheckValue>ACITM09</CheckValue>
            </RangeCheck>
         </def:WhereClauseDef>
         <def:WhereClauseDef OID="WC.ADADAS.PARAMCD.EQ.ACITM10">
            <RangeCheck SoftHard="Soft" def:ItemOID="IT.ADADAS.PARAMCD" Comparator="EQ">
               <CheckValue>ACITM10</CheckValue>
            </RangeCheck>
         </def:WhereClauseDef>
         <def:WhereClauseDef OID="WC.ADADAS.PARAMCD.EQ.ACITM11">
            <RangeCheck SoftHard="Soft" def:ItemOID="IT.ADADAS.PARAMCD" Comparator="EQ">
               <CheckValue>ACITM11</CheckValue>
            </RangeCheck>
         </def:WhereClauseDef>
         <def:WhereClauseDef OID="WC.ADADAS.PARAMCD.EQ.ACITM12">
            <RangeCheck SoftHard="Soft" def:ItemOID="IT.ADADAS.PARAMCD" Comparator="EQ">
               <CheckValue>ACITM12</CheckValue>
            </RangeCheck>
         </def:WhereClauseDef>
         <def:WhereClauseDef OID="WC.ADADAS.PARAMCD.EQ.ACITM13">
            <RangeCheck SoftHard="Soft" def:ItemOID="IT.ADADAS.PARAMCD" Comparator="EQ">
               <CheckValue>ACITM13</CheckValue>
            </RangeCheck>
         </def:WhereClauseDef>
         <def:WhereClauseDef OID="WC.ADADAS.PARAMCD.EQ.ACITM14">
            <RangeCheck SoftHard="Soft" def:ItemOID="IT.ADADAS.PARAMCD" Comparator="EQ">
               <CheckValue>ACITM14</CheckValue>
            </RangeCheck>
         </def:WhereClauseDef>
         <def:WhereClauseDef OID="WC.ADADAS.PARAMCD.EQ.ACTOT">
            <RangeCheck SoftHard="Soft" def:ItemOID="IT.ADADAS.PARAMCD" Comparator="EQ">
               <CheckValue>ACTOT</CheckValue>
            </RangeCheck>
         </def:WhereClauseDef>
         <ItemGroupDef OID="IG.ADSL" Name="ADSL" Repeating="No" IsReferenceData="No"
                       SASDatasetName="ADSL"
                       Purpose="Analysis"
                       def:Structure="one record per subject. Screen Failures are excluded."
                       def:ArchiveLocationID="LF.ADSL"
                       def:Class="SUBJECT LEVEL ANALYSIS DATASET">
            <Description>
               <TranslatedText>Subject-Level Analysis Dataset</TranslatedText>
            </Description>
            <ItemRef ItemOID="IT.ADSL.STUDYID" Mandatory="No" OrderNumber="1"/>
            <ItemRef ItemOID="IT.ADSL.USUBJID" Mandatory="No" OrderNumber="2" KeySequence="1"/>
            <ItemRef ItemOID="IT.ADSL.SUBJID" Mandatory="No" OrderNumber="3"
                     MethodOID="MT.ADSL.SUBJID"/>
            <ItemRef ItemOID="IT.ADSL.SITEID" Mandatory="No" OrderNumber="4"
                     MethodOID="MT.ADSL.SITEID"/>
            <ItemRef ItemOID="IT.ADSL.SITEGR1" Mandatory="No" OrderNumber="5"
                     MethodOID="MT.ADSL.SITEGR1"/>
            <ItemRef ItemOID="IT.ADSL.ARM" Mandatory="No" OrderNumber="6" MethodOID="MT.ADSL.ARM"/>
            <ItemRef ItemOID="IT.ADSL.TRT01P" Mandatory="No" OrderNumber="7"
                     MethodOID="MT.ADSL.TRT01P"/>
            <ItemRef ItemOID="IT.ADSL.TRT01PN" Mandatory="No" OrderNumber="8"
                     MethodOID="MT.ADSL.TRT01PN"/>
            <ItemRef ItemOID="IT.ADSL.TRT01A" Mandatory="No" OrderNumber="9"
                     MethodOID="MT.ADSL.TRT01A"/>
            <ItemRef ItemOID="IT.ADSL.TRT01AN" Mandatory="No" OrderNumber="10"
                     MethodOID="MT.ADSL.TRT01AN"/>
            <ItemRef ItemOID="IT.ADSL.TRTSDT" Mandatory="No" OrderNumber="11"
                     MethodOID="MT.ADSL.TRTSDT"/>
            <ItemRef ItemOID="IT.ADSL.TRTEDT" Mandatory="No" OrderNumber="12"
                     MethodOID="MT.ADSL.TRTEDT"/>
            <ItemRef ItemOID="IT.ADSL.TRTDURD" Mandatory="No" OrderNumber="13"
                     MethodOID="MT.ADSL.TRTDUR"/>
            <ItemRef ItemOID="IT.ADSL.AVGDD" Mandatory="No" OrderNumber="14"
                     MethodOID="MT.ADSL.AVGDD"/>
            <ItemRef ItemOID="IT.ADSL.CUMDOSE" Mandatory="No" OrderNumber="15"
                     MethodOID="MT.ADSL.CUMDOSE"/>
            <ItemRef ItemOID="IT.ADSL.AGE" Mandatory="No" OrderNumber="16" MethodOID="MT.ADSL.AGE"/>
            <ItemRef ItemOID="IT.ADSL.AGEGR1" Mandatory="No" OrderNumber="17"
                     MethodOID="MT.ADSL.AGEGR1"/>
            <ItemRef ItemOID="IT.ADSL.AGEGR1N" Mandatory="No" OrderNumber="18"
                     MethodOID="MT.ADSL.AGEGR1N"/>
            <ItemRef ItemOID="IT.ADSL.AGEU" Mandatory="No" OrderNumber="19" MethodOID="MT.ADSL.AGEU"/>
            <ItemRef ItemOID="IT.ADSL.RACE" Mandatory="No" OrderNumber="20" MethodOID="MT.ADSL.RACE"/>
            <ItemRef ItemOID="IT.ADSL.RACEN" Mandatory="No" OrderNumber="21"
                     MethodOID="MT.ADSL.RACEN"/>
            <ItemRef ItemOID="IT.ADSL.SEX" Mandatory="No" OrderNumber="22" MethodOID="MT.ADSL.SEX"/>
            <ItemRef ItemOID="IT.ADSL.ETHNIC" Mandatory="No" OrderNumber="23"
                     MethodOID="MT.ADSL.ETHNIC"/>
            <ItemRef ItemOID="IT.ADSL.SAFFL" Mandatory="No" OrderNumber="24"
                     MethodOID="MT.ADSL.SAFFL"/>
            <ItemRef ItemOID="IT.ADSL.ITTFL" Mandatory="No" OrderNumber="25"
                     MethodOID="MT.ADSL.ITTFL"/>
            <ItemRef ItemOID="IT.ADSL.EFFFL" Mandatory="No" OrderNumber="26"
                     MethodOID="MT.ADSL.EFFFL"/>
            <ItemRef ItemOID="IT.ADSL.COMP8FL" Mandatory="No" OrderNumber="27"
                     MethodOID="MT.ADSL.COMP8FL"/>
            <ItemRef ItemOID="IT.ADSL.COMP16FL" Mandatory="No" OrderNumber="28"
                     MethodOID="MT.ADSL.COMP16FL"/>
            <ItemRef ItemOID="IT.ADSL.COMP24FL" Mandatory="No" OrderNumber="29"
                     MethodOID="MT.ADSL.COMP24FL"/>
            <ItemRef ItemOID="IT.ADSL.DISCONFL" Mandatory="No" OrderNumber="30"
                     MethodOID="MT.ADSL.DISCONFL"/>
            <ItemRef ItemOID="IT.ADSL.DSRAEFL" Mandatory="No" OrderNumber="31"
                     MethodOID="MT.ADSL.DSRAEFL"/>
            <ItemRef ItemOID="IT.ADSL.DTHFL" Mandatory="No" OrderNumber="32"
                     MethodOID="MT.ADSL.DTHFL"/>
            <ItemRef ItemOID="IT.ADSL.BMIBL" Mandatory="No" OrderNumber="33"
                     MethodOID="MT.ADSL.BMIBL"/>
            <ItemRef ItemOID="IT.ADSL.BMIBLGR1" Mandatory="No" OrderNumber="34"
                     MethodOID="MT.ADSL.BMIBLGR1"/>
            <ItemRef ItemOID="IT.ADSL.HEIGHTBL" Mandatory="No" OrderNumber="35"
                     MethodOID="MT.ADSL.HEIGHTBL"/>
            <ItemRef ItemOID="IT.ADSL.WEIGHTBL" Mandatory="No" OrderNumber="36"
                     MethodOID="MT.ADSL.WEIGHTBL"/>
            <ItemRef ItemOID="IT.ADSL.EDUCLVL" Mandatory="No" OrderNumber="37"
                     MethodOID="MT.ADSL.EDUCLVL"/>
            <ItemRef ItemOID="IT.ADSL.DISONSDT" Mandatory="No" OrderNumber="38"
                     MethodOID="MT.ADSL.DISONSDT"/>
            <ItemRef ItemOID="IT.ADSL.DURDIS" Mandatory="No" OrderNumber="39"
                     MethodOID="MT.ADSL.DURDIS"/>
            <ItemRef ItemOID="IT.ADSL.DURDSGR1" Mandatory="No" OrderNumber="40"
                     MethodOID="MT.ADSL.DURDSGR1"/>
            <ItemRef ItemOID="IT.ADSL.VISIT1DT" Mandatory="No" OrderNumber="41"
                     MethodOID="MT.ADSL.VISIT1DT"/>
            <ItemRef ItemOID="IT.ADSL.RFSTDTC" Mandatory="No" OrderNumber="42"
                     MethodOID="MT.ADSL.RFSTDTC"/>
            <ItemRef ItemOID="IT.ADSL.RFENDTC" Mandatory="No" OrderNumber="43"
                     MethodOID="MT.ADSL.RFENDTC"/>
            <ItemRef ItemOID="IT.ADSL.VISNUMEN" Mandatory="No" OrderNumber="44"
                     MethodOID="MT.ADSL.VISNUMEN"/>
            <ItemRef ItemOID="IT.ADSL.RFENDT" Mandatory="No" OrderNumber="45"
                     MethodOID="MT.ADSL.RFENDT"/>
            <ItemRef ItemOID="IT.ADSL.DCDECOD" Mandatory="No" OrderNumber="46"
                     MethodOID="MT.ADSL.DCDECOD"/>
            <ItemRef ItemOID="IT.ADSL.EOSSTT" Mandatory="No" OrderNumber="47"
                     MethodOID="MT.ADSL.EOSSTT"/>
            <ItemRef ItemOID="IT.ADSL.DCSREAS" Mandatory="No" OrderNumber="48"
                     MethodOID="MT.ADSL.DCREASCD"/>
            <ItemRef ItemOID="IT.ADSL.MMSETOT" Mandatory="No" OrderNumber="49"
                     MethodOID="MT.ADSL.MMSETOT"/>
            <def:leaf ID="LF.ADSL" xlink:href="adsl.xpt">
               <def:title>adsl.xpt</def:title>
            </def:leaf>
         </ItemGroupDef>
         <ItemGroupDef OID="IG.ADADAS" Name="ADADAS" Repeating="Yes" IsReferenceData="No"
                       SASDatasetName="ADADAS"
                       Purpose="Analysis"
                       def:Structure="one record per subject per parameter per analysis visit per analysis date"
                       def:ArchiveLocationID="LF.ADADAS"
                       def:Class="BASIC DATA STRUCTURE">
            <Description>
               <TranslatedText>ADAS-Cog Analysis</TranslatedText>
            </Description>
            <ItemRef ItemOID="IT.ADADAS.STUDYID" Mandatory="No" OrderNumber="1"/>
            <ItemRef ItemOID="IT.ADADAS.SITEID" Mandatory="No" OrderNumber="2"/>
            <ItemRef ItemOID="IT.ADADAS.SITEGR1" Mandatory="No" OrderNumber="3"/>
            <ItemRef ItemOID="IT.ADADAS.USUBJID" Mandatory="No" OrderNumber="4" KeySequence="1"/>
            <ItemRef ItemOID="IT.ADADAS.TRTSDT" Mandatory="No" OrderNumber="5"/>
            <ItemRef ItemOID="IT.ADADAS.TRTEDT" Mandatory="No" OrderNumber="6"/>
            <ItemRef ItemOID="IT.ADADAS.TRTP" Mandatory="No" OrderNumber="7"/>
            <ItemRef ItemOID="IT.ADADAS.TRTPN" Mandatory="No" OrderNumber="8"/>
            <ItemRef ItemOID="IT.ADADAS.AGE" Mandatory="No" OrderNumber="9"/>
            <ItemRef ItemOID="IT.ADADAS.AGEGR1" Mandatory="No" OrderNumber="10"/>
            <ItemRef ItemOID="IT.ADADAS.AGEGR1N" Mandatory="No" OrderNumber="11"/>
            <ItemRef ItemOID="IT.ADADAS.RACE" Mandatory="No" OrderNumber="12"/>
            <ItemRef ItemOID="IT.ADADAS.RACEN" Mandatory="No" OrderNumber="13"/>
            <ItemRef ItemOID="IT.ADADAS.SEX" Mandatory="No" OrderNumber="14"/>
            <ItemRef ItemOID="IT.ADADAS.ITTFL" Mandatory="No" OrderNumber="15"/>
            <ItemRef ItemOID="IT.ADADAS.EFFFL" Mandatory="No" OrderNumber="16"/>
            <ItemRef ItemOID="IT.ADADAS.COMP24FL" Mandatory="No" OrderNumber="17"/>
            <ItemRef ItemOID="IT.ADADAS.AVISIT" Mandatory="No" OrderNumber="18" KeySequence="3"
                     MethodOID="MT.ADADAS.AVISIT"/>
            <ItemRef ItemOID="IT.ADADAS.AVISITN" Mandatory="No" OrderNumber="19"
                     MethodOID="MT.ADADAS.AVISITN"/>
            <ItemRef ItemOID="IT.ADADAS.VISIT" Mandatory="No" OrderNumber="20"/>
            <ItemRef ItemOID="IT.ADADAS.VISITNUM" Mandatory="No" OrderNumber="21"/>
            <ItemRef ItemOID="IT.ADADAS.ADY" Mandatory="No" OrderNumber="22"
                     MethodOID="MT.ADADAS.ADY"/>
            <ItemRef ItemOID="IT.ADADAS.ADT" Mandatory="No" OrderNumber="23" KeySequence="4"
                     MethodOID="MT.ADADAS.ADT"/>
            <ItemRef ItemOID="IT.ADADAS.PARAM" Mandatory="No" OrderNumber="24"/>
            <ItemRef ItemOID="IT.ADADAS.PARAMCD" Mandatory="No" OrderNumber="25" KeySequence="2"/>
            <ItemRef ItemOID="IT.ADADAS.PARAMN" Mandatory="No" OrderNumber="26"/>
            <ItemRef ItemOID="IT.ADADAS.AVAL" Mandatory="No" OrderNumber="27"
                     MethodOID="MT.ADADAS.AVAL"/>
            <ItemRef ItemOID="IT.ADADAS.BASE" Mandatory="No" OrderNumber="28"
                     MethodOID="MT.ADADAS.BASE"/>
            <ItemRef ItemOID="IT.ADADAS.CHG" Mandatory="No" OrderNumber="29"
                     MethodOID="MT.ADADAS.CHG"/>
            <ItemRef ItemOID="IT.ADADAS.PCHG" Mandatory="No" OrderNumber="30"
                     MethodOID="MT.ADADAS.PCHG"/>
            <ItemRef ItemOID="IT.ADADAS.ABLFL" Mandatory="No" OrderNumber="31"/>
            <ItemRef ItemOID="IT.ADADAS.ANL01FL" Mandatory="No" OrderNumber="32"
                     MethodOID="MT.ADADAS.ANL01FL"/>
            <ItemRef ItemOID="IT.ADADAS.DTYPE" Mandatory="No" OrderNumber="33"
                     MethodOID="MT.ADADAS.DTYPE"/>
            <ItemRef ItemOID="IT.ADADAS.AWRANGE" Mandatory="No" OrderNumber="34"/>
            <ItemRef ItemOID="IT.ADADAS.AWTARGET" Mandatory="No" OrderNumber="35"/>
            <ItemRef ItemOID="IT.ADADAS.AWTDIFF" Mandatory="No" OrderNumber="36"/>
            <ItemRef ItemOID="IT.ADADAS.AWLO" Mandatory="No" OrderNumber="37"/>
            <ItemRef ItemOID="IT.ADADAS.AWHI" Mandatory="No" OrderNumber="38"/>
            <ItemRef ItemOID="IT.ADADAS.AWU" Mandatory="No" OrderNumber="39"/>
            <ItemRef ItemOID="IT.ADADAS.QSSEQ" Mandatory="No" OrderNumber="40"/>
            <def:leaf ID="LF.ADADAS" xlink:href="adadas.xpt">
               <def:title>adadas.xpt</def:title>
            </def:leaf>
         </ItemGroupDef>
         <ItemGroupDef OID="IG.ADLBC" Name="ADLBC" Repeating="Yes" IsReferenceData="No"
                       SASDatasetName="ADLBC"
                       Purpose="Analysis"
                       def:Structure="one record per subject per parameter per analysis visit"
                       def:ArchiveLocationID="LF.ADLBC"
                       def:Class="BASIC DATA STRUCTURE">
            <Description>
               <TranslatedText>Analysis Dataset Lab Blood Chemistry</TranslatedText>
            </Description>
            <ItemRef ItemOID="IT.ADLBC.STUDYID" Mandatory="No" OrderNumber="1"/>
            <ItemRef ItemOID="IT.ADLBC.SUBJID" Mandatory="No" OrderNumber="2"/>
            <ItemRef ItemOID="IT.ADLBC.USUBJID" Mandatory="No" OrderNumber="3" KeySequence="1"/>
            <ItemRef ItemOID="IT.ADLBC.TRTP" Mandatory="No" OrderNumber="4"
                     MethodOID="MT.ADLBC.TRTP"/>
            <ItemRef ItemOID="IT.ADLBC.TRTPN" Mandatory="No" OrderNumber="5"
                     MethodOID="MT.ADLBC.TRTPN"/>
            <ItemRef ItemOID="IT.ADLBC.TRTA" Mandatory="No" OrderNumber="6"
                     MethodOID="MT.ADLBC.TRTA"/>
            <ItemRef ItemOID="IT.ADLBC.TRTAN" Mandatory="No" OrderNumber="7"
                     MethodOID="MT.ADLBC.TRTAN"/>
            <ItemRef ItemOID="IT.ADLBC.TRTSDT" Mandatory="No" OrderNumber="8"/>
            <ItemRef ItemOID="IT.ADLBC.TRTEDT" Mandatory="No" OrderNumber="9"/>
            <ItemRef ItemOID="IT.ADLBC.AGE" Mandatory="No" OrderNumber="10"/>
            <ItemRef ItemOID="IT.ADLBC.AGEGR1" Mandatory="No" OrderNumber="11"/>
            <ItemRef ItemOID="IT.ADLBC.AGEGR1N" Mandatory="No" OrderNumber="12"/>
            <ItemRef ItemOID="IT.ADLBC.RACE" Mandatory="No" OrderNumber="13"/>
            <ItemRef ItemOID="IT.ADLBC.RACEN" Mandatory="No" OrderNumber="14"/>
            <ItemRef ItemOID="IT.ADLBC.SEX" Mandatory="No" OrderNumber="15"/>
            <ItemRef ItemOID="IT.ADLBC.COMP24FL" Mandatory="No" OrderNumber="16"/>
            <ItemRef ItemOID="IT.ADLBC.DSRAEFL" Mandatory="No" OrderNumber="17"/>
            <ItemRef ItemOID="IT.ADLBC.SAFFL" Mandatory="No" OrderNumber="18"/>
            <ItemRef ItemOID="IT.ADLBC.AVISIT" Mandatory="No" OrderNumber="19" KeySequence="3"
                     MethodOID="MT.ADLBC.AVISIT"/>
            <ItemRef ItemOID="IT.ADLBC.AVISITN" Mandatory="No" OrderNumber="20"/>
            <ItemRef ItemOID="IT.ADLBC.ADY" Mandatory="No" OrderNumber="21" MethodOID="MT.ADLBC.ADY"/>
            <ItemRef ItemOID="IT.ADLBC.ADT" Mandatory="No" OrderNumber="22" MethodOID="MT.ADLBC.ADT"/>
            <ItemRef ItemOID="IT.ADLBC.VISIT" Mandatory="No" OrderNumber="23"/>
            <ItemRef ItemOID="IT.ADLBC.VISITNUM" Mandatory="No" OrderNumber="24"/>
            <ItemRef ItemOID="IT.ADLBC.PARAM" Mandatory="No" OrderNumber="25"
                     MethodOID="MT.ADLBC.PARAM"/>
            <ItemRef ItemOID="IT.ADLBC.PARAMCD" Mandatory="No" OrderNumber="26" KeySequence="2"/>
            <ItemRef ItemOID="IT.ADLBC.PARAMN" Mandatory="No" OrderNumber="27"
                     MethodOID="MT.ADLBC.PARAMN"/>
            <ItemRef ItemOID="IT.ADLBC.PARCAT1" Mandatory="No" OrderNumber="28"/>
            <ItemRef ItemOID="IT.ADLBC.AVAL" Mandatory="No" OrderNumber="29"/>
            <ItemRef ItemOID="IT.ADLBC.BASE" Mandatory="No" OrderNumber="30"
                     MethodOID="MT.ADLBC.BASE"/>
            <ItemRef ItemOID="IT.ADLBC.CHG" Mandatory="No" OrderNumber="31" MethodOID="MT.ADLBC.CHG"/>
            <ItemRef ItemOID="IT.ADLBC.A1LO" Mandatory="No" OrderNumber="32"
                     MethodOID="MT.ADLBC.A1LO"/>
            <ItemRef ItemOID="IT.ADLBC.A1HI" Mandatory="No" OrderNumber="33"
                     MethodOID="MT.ADLBC.A1HI"/>
            <ItemRef ItemOID="IT.ADLBC.R2A1LO" Mandatory="No" OrderNumber="34"
                     MethodOID="MT.ADLBC.R2A1LO"/>
            <ItemRef ItemOID="IT.ADLBC.R2A1HI" Mandatory="No" OrderNumber="35"
                     MethodOID="MT.ADLBC.R2A1HI"/>
            <ItemRef ItemOID="IT.ADLBC.BR2A1LO" Mandatory="No" OrderNumber="36"
                     MethodOID="MT.ADLBC.BR2A1LO"/>
            <ItemRef ItemOID="IT.ADLBC.BR2A1HI" Mandatory="No" OrderNumber="37"
                     MethodOID="MT.ADLBC.BR2A1HI"/>
            <ItemRef ItemOID="IT.ADLBC.ANL01FL" Mandatory="No" OrderNumber="38"
                     MethodOID="MT.ADLBC.ANL01FL"/>
            <ItemRef ItemOID="IT.ADLBC.ALBTRVAL" Mandatory="No" OrderNumber="39"
                     MethodOID="MT.ADLBC.ALBTRVAL"/>
            <ItemRef ItemOID="IT.ADLBC.ANRIND" Mandatory="No" OrderNumber="40"
                     MethodOID="MT.ADLBC.ANRIND"/>
            <ItemRef ItemOID="IT.ADLBC.BNRIND" Mandatory="No" OrderNumber="41"
                     MethodOID="MT.ADLBC.BNRIND"/>
            <ItemRef ItemOID="IT.ADLBC.ABLFL" Mandatory="No" OrderNumber="42"/>
            <ItemRef ItemOID="IT.ADLBC.AENTMTFL" Mandatory="No" OrderNumber="43"
                     MethodOID="MT.ADLBC.AENTMTFL"/>
            <ItemRef ItemOID="IT.ADLBC.LBSEQ" Mandatory="No" OrderNumber="44" KeySequence="4"/>
            <ItemRef ItemOID="IT.ADLBC.LBNRIND" Mandatory="No" OrderNumber="45"/>
            <ItemRef ItemOID="IT.ADLBC.LBSTRESN" Mandatory="No" OrderNumber="46"/>
            <def:leaf ID="LF.ADLBC" xlink:href="adlbc.xpt">
               <def:title>adlbc.xpt</def:title>
            </def:leaf>
         </ItemGroupDef>
         <ItemGroupDef OID="IG.ADTTE" Name="ADTTE" Repeating="Yes" IsReferenceData="No"
                       SASDatasetName="ADTTE"
                       Purpose="Analysis"
                       def:Structure="one record per subject per parameter"
                       def:ArchiveLocationID="LF.ADTTE"
                       def:Class="BASIC DATA STRUCTURE">
            <Description>
               <TranslatedText>AE Time To 1st Derm. Event Analysis</TranslatedText>
            </Description>
            <ItemRef ItemOID="IT.ADTTE.STUDYID" Mandatory="No" OrderNumber="1"/>
            <ItemRef ItemOID="IT.ADTTE.SITEID" Mandatory="No" OrderNumber="2"
                     MethodOID="MT.ADTTE.SITEID"/>
            <ItemRef ItemOID="IT.ADTTE.USUBJID" Mandatory="No" OrderNumber="3" KeySequence="1"/>
            <ItemRef ItemOID="IT.ADTTE.AGE" Mandatory="No" OrderNumber="4" MethodOID="MT.ADTTE.AGE"/>
            <ItemRef ItemOID="IT.ADTTE.AGEGR1" Mandatory="No" OrderNumber="5"
                     MethodOID="MT.ADTTE.AGEGR1"/>
            <ItemRef ItemOID="IT.ADTTE.AGEGR1N" Mandatory="No" OrderNumber="6"
                     MethodOID="MT.ADTTE.AGEGR1N"/>
            <ItemRef ItemOID="IT.ADTTE.RACE" Mandatory="No" OrderNumber="7"
                     MethodOID="MT.ADTTE.RACE"/>
            <ItemRef ItemOID="IT.ADTTE.RACEN" Mandatory="No" OrderNumber="8"
                     MethodOID="MT.ADTTE.RACEN"/>
            <ItemRef ItemOID="IT.ADTTE.SEX" Mandatory="No" OrderNumber="9" MethodOID="MT.ADTTE.SEX"/>
            <ItemRef ItemOID="IT.ADTTE.TRTSDT" Mandatory="No" OrderNumber="10"
                     MethodOID="MT.ADTTE.TRTSDT"/>
            <ItemRef ItemOID="IT.ADTTE.TRTEDT" Mandatory="No" OrderNumber="11"
                     MethodOID="MT.ADTTE.TRTEDT"/>
            <ItemRef ItemOID="IT.ADTTE.TRTDUR" Mandatory="No" OrderNumber="12"
                     MethodOID="MT.ADTTE.TRTDUR"/>
            <ItemRef ItemOID="IT.ADTTE.TRTP" Mandatory="No" OrderNumber="13"
                     MethodOID="MT.ADTTE.TRTP"/>
            <ItemRef ItemOID="IT.ADTTE.TRTA" Mandatory="No" OrderNumber="14"
                     MethodOID="MT.ADTTE.TRTA"/>
            <ItemRef ItemOID="IT.ADTTE.TRTAN" Mandatory="No" OrderNumber="15"
                     MethodOID="MT.ADTTE.TRTAN"/>
            <ItemRef ItemOID="IT.ADTTE.PARAM" Mandatory="No" OrderNumber="16"
                     MethodOID="MT.ADTTE.PARAM"/>
            <ItemRef ItemOID="IT.ADTTE.PARAMCD" Mandatory="No" OrderNumber="17" KeySequence="2"
                     MethodOID="MT.ADTTE.PARAMCD"/>
            <ItemRef ItemOID="IT.ADTTE.AVAL" Mandatory="No" OrderNumber="18"
                     MethodOID="MT.ADTTE.AVAL"/>
            <ItemRef ItemOID="IT.ADTTE.STARTDT" Mandatory="No" OrderNumber="19"
                     MethodOID="MT.ADTTE.STARTDT"/>
            <ItemRef ItemOID="IT.ADTTE.ADT" Mandatory="No" OrderNumber="20" MethodOID="MT.ADTTE.ADT"/>
            <ItemRef ItemOID="IT.ADTTE.CNSR" Mandatory="No" OrderNumber="21"
                     MethodOID="MT.ADTTE.CNSR"/>
            <ItemRef ItemOID="IT.ADTTE.EVNTDESC" Mandatory="No" OrderNumber="22"
                     MethodOID="MT.ADTTE.EVNTDESC"/>
            <ItemRef ItemOID="IT.ADTTE.SRCDOM" Mandatory="No" OrderNumber="23"
                     MethodOID="MT.ADTTE.SRCDOM"/>
            <ItemRef ItemOID="IT.ADTTE.SRCVAR" Mandatory="No" OrderNumber="24"
                     MethodOID="MT.ADTTE.SRCVAR"/>
            <ItemRef ItemOID="IT.ADTTE.SRCSEQ" Mandatory="No" OrderNumber="25"
                     MethodOID="MT.ADTTE.SRCSEQ"/>
            <ItemRef ItemOID="IT.ADTTE.SAFFL" Mandatory="No" OrderNumber="26"
                     MethodOID="MT.ADTTE.SAFFL"/>
            <def:leaf ID="LF.ADTTE" xlink:href="adtte.xpt">
               <def:title>adtte.xpt</def:title>
            </def:leaf>
         </ItemGroupDef>
         <ItemGroupDef OID="IG.ADAE" Name="ADAE" Repeating="Yes" IsReferenceData="No"
                       SASDatasetName="ADAE"
                       Purpose="Analysis"
                       def:Structure="one record per subject per adverse event"
                       def:ArchiveLocationID="LF.ADAE"
                       def:Class="ADAM OTHER">
            <Description>
               <TranslatedText>Adverse Events Analysis Dataset</TranslatedText>
            </Description>
            <ItemRef ItemOID="IT.ADAE.STUDYID" Mandatory="No" OrderNumber="1"/>
            <ItemRef ItemOID="IT.ADAE.SITEID" Mandatory="No" OrderNumber="2"
                     MethodOID="MT.ADAE.SITEID"/>
            <ItemRef ItemOID="IT.ADAE.USUBJID" Mandatory="No" OrderNumber="3" KeySequence="1"/>
            <ItemRef ItemOID="IT.ADAE.TRTA" Mandatory="No" OrderNumber="4" MethodOID="MT.ADAE.TRTA"/>
            <ItemRef ItemOID="IT.ADAE.TRTAN" Mandatory="No" OrderNumber="5"
                     MethodOID="MT.ADAE.TRTAN"/>
            <ItemRef ItemOID="IT.ADAE.AGE" Mandatory="No" OrderNumber="6" MethodOID="MT.ADAE.AGE"/>
            <ItemRef ItemOID="IT.ADAE.AGEGR1" Mandatory="No" OrderNumber="7"
                     MethodOID="MT.ADAE.AGEGR1"/>
            <ItemRef ItemOID="IT.ADAE.AGEGR1N" Mandatory="No" OrderNumber="8"
                     MethodOID="MT.ADAE.AGEGR1N"/>
            <ItemRef ItemOID="IT.ADAE.RACE" Mandatory="No" OrderNumber="9" MethodOID="MT.ADAE.RACE"/>
            <ItemRef ItemOID="IT.ADAE.RACEN" Mandatory="No" OrderNumber="10"
                     MethodOID="MT.ADAE.RACEN"/>
            <ItemRef ItemOID="IT.ADAE.SEX" Mandatory="No" OrderNumber="11" MethodOID="MT.ADAE.SEX"/>
            <ItemRef ItemOID="IT.ADAE.SAFFL" Mandatory="No" OrderNumber="12"
                     MethodOID="MT.ADAE.SAFFL"/>
            <ItemRef ItemOID="IT.ADAE.TRTSDT" Mandatory="No" OrderNumber="13"
                     MethodOID="MT.ADAE.TRTSDT"/>
            <ItemRef ItemOID="IT.ADAE.TRTEDT" Mandatory="No" OrderNumber="14"
                     MethodOID="MT.ADAE.TRTEDT"/>
            <ItemRef ItemOID="IT.ADAE.ASTDT" Mandatory="No" OrderNumber="15" KeySequence="3"
                     MethodOID="MT.ADAE.ASTDT"/>
            <ItemRef ItemOID="IT.ADAE.ASTDTF" Mandatory="No" OrderNumber="16"
                     MethodOID="MT.ADAE.ASTDTF"/>
            <ItemRef ItemOID="IT.ADAE.ASTDY" Mandatory="No" OrderNumber="17"
                     MethodOID="MT.ADAE.ASTDY"/>
            <ItemRef ItemOID="IT.ADAE.AENDT" Mandatory="No" OrderNumber="18"
                     MethodOID="MT.ADAE.AENDT"/>
            <ItemRef ItemOID="IT.ADAE.AENDY" Mandatory="No" OrderNumber="19"
                     MethodOID="MT.ADAE.AENDY"/>
            <ItemRef ItemOID="IT.ADAE.ADURN" Mandatory="No" OrderNumber="20"
                     MethodOID="MT.ADAE.ADURN"/>
            <ItemRef ItemOID="IT.ADAE.ADURU" Mandatory="No" OrderNumber="21"
                     MethodOID="MT.ADAE.ADURU"/>
            <ItemRef ItemOID="IT.ADAE.AETERM" Mandatory="No" OrderNumber="22" KeySequence="2"
                     MethodOID="MT.ADAE.AETERM"/>
            <ItemRef ItemOID="IT.ADAE.AELLT" Mandatory="No" OrderNumber="23"
                     MethodOID="MT.ADAE.AELLT"/>
            <ItemRef ItemOID="IT.ADAE.AELLTCD" Mandatory="No" OrderNumber="24"
                     MethodOID="MT.ADAE.AELLTCD"/>
            <ItemRef ItemOID="IT.ADAE.AEDECOD" Mandatory="No" OrderNumber="25"
                     MethodOID="MT.ADAE.AEDECOD"/>
            <ItemRef ItemOID="IT.ADAE.AEPTCD" Mandatory="No" OrderNumber="26"
                     MethodOID="MT.ADAE.AEPTCD"/>
            <ItemRef ItemOID="IT.ADAE.AEHLT" Mandatory="No" OrderNumber="27"
                     MethodOID="MT.ADAE.AEHLT"/>
            <ItemRef ItemOID="IT.ADAE.AEHLTCD" Mandatory="No" OrderNumber="28"
                     MethodOID="MT.ADAE.AEHLTCD"/>
            <ItemRef ItemOID="IT.ADAE.AEHLGT" Mandatory="No" OrderNumber="29"
                     MethodOID="MT.ADAE.AEHLGT"/>
            <ItemRef ItemOID="IT.ADAE.AEHLGTCD" Mandatory="No" OrderNumber="30"
                     MethodOID="MT.ADAE.AEHLGTCD"/>
            <ItemRef ItemOID="IT.ADAE.AEBODSYS" Mandatory="No" OrderNumber="31"
                     MethodOID="MT.ADAE.AEBODSYS"/>
            <ItemRef ItemOID="IT.ADAE.AESOC" Mandatory="No" OrderNumber="32"
                     MethodOID="MT.ADAE.AESOC"/>
            <ItemRef ItemOID="IT.ADAE.AESOCCD" Mandatory="No" OrderNumber="33"
                     MethodOID="MT.ADAE.AESOCCD"/>
            <ItemRef ItemOID="IT.ADAE.AESEV" Mandatory="No" OrderNumber="34"
                     MethodOID="MT.ADAE.AESEV"/>
            <ItemRef ItemOID="IT.ADAE.AESER" Mandatory="No" OrderNumber="35"
                     MethodOID="MT.ADAE.AESER"/>
            <ItemRef ItemOID="IT.ADAE.AESCAN" Mandatory="No" OrderNumber="36"
                     MethodOID="MT.ADAE.AESCAN"/>
            <ItemRef ItemOID="IT.ADAE.AESCONG" Mandatory="No" OrderNumber="37"
                     MethodOID="MT.ADAE.AESCONG"/>
            <ItemRef ItemOID="IT.ADAE.AESDISAB" Mandatory="No" OrderNumber="38"
                     MethodOID="MT.ADAE.AESDISAB"/>
            <ItemRef ItemOID="IT.ADAE.AESDTH" Mandatory="No" OrderNumber="39"
                     MethodOID="MT.ADAE.AESDTH"/>
            <ItemRef ItemOID="IT.ADAE.AESHOSP" Mandatory="No" OrderNumber="40"
                     MethodOID="MT.ADAE.AESHOSP"/>
            <ItemRef ItemOID="IT.ADAE.AESLIFE" Mandatory="No" OrderNumber="41"
                     MethodOID="MT.ADAE.AESLIFE"/>
            <ItemRef ItemOID="IT.ADAE.AESOD" Mandatory="No" OrderNumber="42"
                     MethodOID="MT.ADAE.AESOD"/>
            <ItemRef ItemOID="IT.ADAE.AEREL" Mandatory="No" OrderNumber="43"
                     MethodOID="MT.ADAE.AEREL"/>
            <ItemRef ItemOID="IT.ADAE.AEACN" Mandatory="No" OrderNumber="44"
                     MethodOID="MT.ADAE.AEACN"/>
            <ItemRef ItemOID="IT.ADAE.AEOUT" Mandatory="No" OrderNumber="45"
                     MethodOID="MT.ADAE.AEOUT"/>
            <ItemRef ItemOID="IT.ADAE.AESEQ" Mandatory="No" OrderNumber="46" KeySequence="4"
                     MethodOID="MT.ADAE.AESEQ"/>
            <ItemRef ItemOID="IT.ADAE.TRTEMFL" Mandatory="No" OrderNumber="47"
                     MethodOID="MT.ADAE.TRTEMFL"/>
            <ItemRef ItemOID="IT.ADAE.AOCCFL" Mandatory="No" OrderNumber="48"
                     MethodOID="MT.ADAE.AOCCFL"/>
            <ItemRef ItemOID="IT.ADAE.AOCCSFL" Mandatory="No" OrderNumber="49"
                     MethodOID="MT.ADAE.AOCCSFL"/>
            <ItemRef ItemOID="IT.ADAE.AOCCPFL" Mandatory="No" OrderNumber="50"
                     MethodOID="MT.ADAE.AOCCPFL"/>
            <ItemRef ItemOID="IT.ADAE.AOCC02FL" Mandatory="No" OrderNumber="51"
                     MethodOID="MT.ADAE.AOCC02FL"/>
            <ItemRef ItemOID="IT.ADAE.AOCC03FL" Mandatory="No" OrderNumber="52"
                     MethodOID="MT.ADAE.AOCC03FL"/>
            <ItemRef ItemOID="IT.ADAE.AOCC04FL" Mandatory="No" OrderNumber="53"
                     MethodOID="MT.ADAE.AOCC04FL"/>
            <ItemRef ItemOID="IT.ADAE.CQ01NAM" Mandatory="No" OrderNumber="54"
                     MethodOID="MT.ADAE.CQ01NAM"/>
            <ItemRef ItemOID="IT.ADAE.AOCC01FL" Mandatory="No" OrderNumber="55"
                     MethodOID="MT.ADAE.AOCC01FL"/>
            <def:leaf ID="LF.ADAE" xlink:href="adae.xpt">
               <def:title>adae.xpt</def:title>
            </def:leaf>
         </ItemGroupDef>
         <ItemDef OID="IT.ADSL.STUDYID" Name="STUDYID" DataType="text" Length="12"
                  SASFieldName="STUDYID">
            <Description>
               <TranslatedText>Study Identifier</TranslatedText>
            </Description>
            <def:Origin Type="Predecessor">
               <Description>
                  <TranslatedText>DM.STUDYID</TranslatedText>
               </Description>
            </def:Origin>
         </ItemDef>
         <ItemDef OID="IT.ADSL.USUBJID" Name="USUBJID" DataType="text" Length="11"
                  SASFieldName="USUBJID">
            <Description>
               <TranslatedText>Unique Subject Identifier</TranslatedText>
            </Description>
            <def:Origin Type="Predecessor">
               <Description>
                  <TranslatedText>DM.USUBJID</TranslatedText>
               </Description>
            </def:Origin>
         </ItemDef>
         <ItemDef OID="IT.ADSL.SUBJID" Name="SUBJID" DataType="text" Length="4"
                  SASFieldName="SUBJID">
            <Description>
               <TranslatedText>Subject Identifier for the Study</TranslatedText>
            </Description>
            <def:Origin Type="Derived"/>
         </ItemDef>
         <ItemDef OID="IT.ADSL.SITEID" Name="SITEID" DataType="text" Length="3"
                  SASFieldName="SITEID">
            <Description>
               <TranslatedText>Study Site Identifier</TranslatedText>
            </Description>
            <def:Origin Type="Derived"/>
         </ItemDef>
         <ItemDef OID="IT.ADSL.SITEGR1" Name="SITEGR1" DataType="text" Length="3"
                  SASFieldName="SITEGR1">
            <Description>
               <TranslatedText>Pooled Site Group 1</TranslatedText>
            </Description>
            <def:Origin Type="Derived"/>
         </ItemDef>
         <ItemDef OID="IT.ADSL.ARM" Name="ARM" DataType="text" Length="20" SASFieldName="ARM">
            <Description>
               <TranslatedText>Description of Planned Arm</TranslatedText>
            </Description>
            <CodeListRef CodeListOID="CL.ARM"/>
            <def:Origin Type="Derived"/>
         </ItemDef>
         <ItemDef OID="IT.ADSL.TRT01P" Name="TRT01P" DataType="text" Length="20"
                  SASFieldName="TRT01P">
            <Description>
               <TranslatedText>Planned Treatment for Period 01</TranslatedText>
            </Description>
            <CodeListRef CodeListOID="CL.ARM"/>
            <def:Origin Type="Derived"/>
         </ItemDef>
         <ItemDef OID="IT.ADSL.TRT01PN" Name="TRT01PN" DataType="integer" Length="8"
                  SASFieldName="TRT01PN">
            <Description>
               <TranslatedText>Planned Treatment for Period 01 (N)</TranslatedText>
            </Description>
            <CodeListRef CodeListOID="CL.ARMN"/>
            <def:Origin Type="Derived"/>
         </ItemDef>
         <ItemDef OID="IT.ADSL.TRT01A" Name="TRT01A" DataType="text" Length="20"
                  SASFieldName="TRT01A">
            <Description>
               <TranslatedText>Actual Treatment for Period 01</TranslatedText>
            </Description>
            <CodeListRef CodeListOID="CL.ARM"/>
            <def:Origin Type="Derived"/>
         </ItemDef>
         <ItemDef OID="IT.ADSL.TRT01AN" Name="TRT01AN" DataType="integer" Length="8"
                  SASFieldName="TRT01AN">
            <Description>
               <TranslatedText>Actual Treatment for Period 01 (N)</TranslatedText>
            </Description>
            <CodeListRef CodeListOID="CL.ARMN"/>
            <def:Origin Type="Derived"/>
         </ItemDef>
         <ItemDef OID="IT.ADSL.TRTSDT" Name="TRTSDT" DataType="integer" Length="8"
                  SASFieldName="TRTSDT"
                  def:DisplayFormat="DATE9.">
            <Description>
               <TranslatedText>Date of First Exposure to Treatment</TranslatedText>
            </Description>
            <def:Origin Type="Derived"/>
         </ItemDef>
         <ItemDef OID="IT.ADSL.TRTEDT" Name="TRTEDT" DataType="integer" Length="8"
                  SASFieldName="TRTEDT"
                  def:DisplayFormat="DATE9.">
            <Description>
               <TranslatedText>Date of Last Exposure to Treatment</TranslatedText>
            </Description>
            <def:Origin Type="Derived"/>
         </ItemDef>
         <ItemDef OID="IT.ADSL.TRTDURD" Name="TRTDURD" DataType="integer" Length="8"
                  SASFieldName="TRTDURD">
            <Description>
               <TranslatedText>Total Treatment Duration (Days)</TranslatedText>
            </Description>
            <def:Origin Type="Derived"/>
         </ItemDef>
         <ItemDef OID="IT.ADSL.AVGDD" Name="AVGDD" DataType="float" Length="8"
                  SignificantDigits="1"
                  SASFieldName="AVGDD">
            <Description>
               <TranslatedText>Avg Daily Dose (as planned)</TranslatedText>
            </Description>
            <def:Origin Type="Derived"/>
         </ItemDef>
         <ItemDef OID="IT.ADSL.CUMDOSE" Name="CUMDOSE" DataType="float" Length="8"
                  SignificantDigits="1"
                  SASFieldName="CUMDOSE">
            <Description>
               <TranslatedText>Cumulative Dose (as planned)</TranslatedText>
            </Description>
            <def:Origin Type="Derived"/>
         </ItemDef>
         <ItemDef OID="IT.ADSL.AGE" Name="AGE" DataType="integer" Length="8" SASFieldName="AGE">
            <Description>
               <TranslatedText>Age</TranslatedText>
            </Description>
            <def:Origin Type="Derived"/>
         </ItemDef>
         <ItemDef OID="IT.ADSL.AGEGR1" Name="AGEGR1" DataType="text" Length="5"
                  SASFieldName="AGEGR1">
            <Description>
               <TranslatedText>Pooled Age Group 1</TranslatedText>
            </Description>
            <CodeListRef CodeListOID="CL.AGEGR1"/>
            <def:Origin Type="Derived"/>
         </ItemDef>
         <ItemDef OID="IT.ADSL.AGEGR1N" Name="AGEGR1N" DataType="integer" Length="8"
                  SASFieldName="AGEGR1N">
            <Description>
               <TranslatedText>Pooled Age Group 1 (N)</TranslatedText>
            </Description>
            <CodeListRef CodeListOID="CL.AGEGR1N"/>
            <def:Origin Type="Derived"/>
         </ItemDef>
         <ItemDef OID="IT.ADSL.AGEU" Name="AGEU" DataType="text" Length="5" SASFieldName="AGEU">
            <Description>
               <TranslatedText>Age Units</TranslatedText>
            </Description>
            <CodeListRef CodeListOID="CL.AGEU"/>
            <def:Origin Type="Derived"/>
         </ItemDef>
         <ItemDef OID="IT.ADSL.RACE" Name="RACE" DataType="text" Length="32" SASFieldName="RACE">
            <Description>
               <TranslatedText>Race</TranslatedText>
            </Description>
            <CodeListRef CodeListOID="CL.RACE"/>
            <def:Origin Type="Derived"/>
         </ItemDef>
         <ItemDef OID="IT.ADSL.RACEN" Name="RACEN" DataType="integer" Length="8"
                  SASFieldName="RACEN">
            <Description>
               <TranslatedText>Race (N)</TranslatedText>
            </Description>
            <CodeListRef CodeListOID="CL.RACEN"/>
            <def:Origin Type="Derived"/>
         </ItemDef>
         <ItemDef OID="IT.ADSL.SEX" Name="SEX" DataType="text" Length="1" SASFieldName="SEX">
            <Description>
               <TranslatedText>Sex</TranslatedText>
            </Description>
            <CodeListRef CodeListOID="CL.SEX"/>
            <def:Origin Type="Derived"/>
         </ItemDef>
         <ItemDef OID="IT.ADSL.ETHNIC" Name="ETHNIC" DataType="text" Length="22"
                  SASFieldName="ETHNIC">
            <Description>
               <TranslatedText>Ethnicity</TranslatedText>
            </Description>
            <CodeListRef CodeListOID="CL.ETHNIC"/>
            <def:Origin Type="Derived"/>
         </ItemDef>
         <ItemDef OID="IT.ADSL.SAFFL" Name="SAFFL" DataType="text" Length="1"
                  SASFieldName="SAFFL">
            <Description>
               <TranslatedText>Safety Population Flag</TranslatedText>
            </Description>
            <CodeListRef CodeListOID="CL.YN"/>
            <def:Origin Type="Derived"/>
         </ItemDef>
         <ItemDef OID="IT.ADSL.ITTFL" Name="ITTFL" DataType="text" Length="1"
                  SASFieldName="ITTFL">
            <Description>
               <TranslatedText>Intent-To-Treat Population Flag</TranslatedText>
            </Description>
            <CodeListRef CodeListOID="CL.YN"/>
            <def:Origin Type="Derived"/>
         </ItemDef>
         <ItemDef OID="IT.ADSL.EFFFL" Name="EFFFL" DataType="text" Length="1"
                  SASFieldName="EFFFL">
            <Description>
               <TranslatedText>Efficacy Population Flag</TranslatedText>
            </Description>
            <CodeListRef CodeListOID="CL.YN"/>
            <def:Origin Type="Derived"/>
         </ItemDef>
         <ItemDef OID="IT.ADSL.COMP8FL" Name="COMP8FL" DataType="text" Length="1"
                  SASFieldName="COMP8FL">
            <Description>
               <TranslatedText>Completers of Week 8 Population Flag</TranslatedText>
            </Description>
            <CodeListRef CodeListOID="CL.YN"/>
            <def:Origin Type="Derived"/>
         </ItemDef>
         <ItemDef OID="IT.ADSL.COMP16FL" Name="COMP16FL" DataType="text" Length="1"
                  SASFieldName="COMP16FL">
            <Description>
               <TranslatedText>Completers of Week 16 Population Flag</TranslatedText>
            </Description>
            <CodeListRef CodeListOID="CL.YN"/>
            <def:Origin Type="Derived"/>
         </ItemDef>
         <ItemDef OID="IT.ADSL.COMP24FL" Name="COMP24FL" DataType="text" Length="1"
                  SASFieldName="COMP24FL">
            <Description>
               <TranslatedText>Completers of Week 24 Population Flag</TranslatedText>
            </Description>
            <CodeListRef CodeListOID="CL.YN"/>
            <def:Origin Type="Derived"/>
         </ItemDef>
         <ItemDef OID="IT.ADSL.DISCONFL" Name="DISCONFL" DataType="text" Length="1"
                  SASFieldName="DISCONFL">
            <Description>
               <TranslatedText>Did the Subject Discontinue the Study?</TranslatedText>
            </Description>
            <def:Origin Type="Derived"/>
         </ItemDef>
         <ItemDef OID="IT.ADSL.DSRAEFL" Name="DSRAEFL" DataType="text" Length="1"
                  SASFieldName="DSRAEFL">
            <Description>
               <TranslatedText>Discontinued due to AE?</TranslatedText>
            </Description>
            <def:Origin Type="Derived"/>
         </ItemDef>
         <ItemDef OID="IT.ADSL.DTHFL" Name="DTHFL" DataType="text" Length="1"
                  SASFieldName="DTHFL">
            <Description>
               <TranslatedText>Subject Died?</TranslatedText>
            </Description>
            <def:Origin Type="Derived"/>
         </ItemDef>
         <ItemDef OID="IT.ADSL.BMIBL" Name="BMIBL" DataType="float" Length="8"
                  SignificantDigits="1"
                  SASFieldName="BMIBL">
            <Description>
               <TranslatedText>Baseline BMI (kg/m^2)</TranslatedText>
            </Description>
            <def:Origin Type="Derived"/>
         </ItemDef>
         <ItemDef OID="IT.ADSL.BMIBLGR1" Name="BMIBLGR1" DataType="text" Length="6"
                  SASFieldName="BMIBLGR1">
            <Description>
               <TranslatedText>Pooled Baseline BMI Group 1</TranslatedText>
            </Description>
            <CodeListRef CodeListOID="CL.BMICAT"/>
            <def:Origin Type="Derived"/>
         </ItemDef>
         <ItemDef OID="IT.ADSL.HEIGHTBL" Name="HEIGHTBL" DataType="float" Length="8"
                  SignificantDigits="1"
                  SASFieldName="HEIGHTBL">
            <Description>
               <TranslatedText>Baseline Height (cm)</TranslatedText>
            </Description>
            <def:Origin Type="Derived"/>
         </ItemDef>
         <ItemDef OID="IT.ADSL.WEIGHTBL" Name="WEIGHTBL" DataType="float" Length="8"
                  SignificantDigits="1"
                  SASFieldName="WEIGHTBL">
            <Description>
               <TranslatedText>Baseline Weight (kg)</TranslatedText>
            </Description>
            <def:Origin Type="Derived"/>
         </ItemDef>
         <ItemDef OID="IT.ADSL.EDUCLVL" Name="EDUCLVL" DataType="integer" Length="8"
                  SASFieldName="EDUCLVL">
            <Description>
               <TranslatedText>Years of Education</TranslatedText>
            </Description>
            <def:Origin Type="Derived"/>
         </ItemDef>
         <ItemDef OID="IT.ADSL.DISONSDT" Name="DISONSDT" DataType="integer" Length="8"
                  SASFieldName="DISONSDT"
                  def:DisplayFormat="DATE9.">
            <Description>
               <TranslatedText>Date of Onset of Disease</TranslatedText>
            </Description>
            <def:Origin Type="Derived"/>
         </ItemDef>
         <ItemDef OID="IT.ADSL.DURDIS" Name="DURDIS" DataType="float" Length="8"
                  SignificantDigits="1"
                  SASFieldName="DURDIS">
            <Description>
               <TranslatedText>Duration of Disease (Months)</TranslatedText>
            </Description>
            <def:Origin Type="Derived"/>
         </ItemDef>
         <ItemDef OID="IT.ADSL.DURDSGR1" Name="DURDSGR1" DataType="text" Length="4"
                  SASFieldName="DURDSGR1">
            <Description>
               <TranslatedText>Pooled Disease Duration Group 1</TranslatedText>
            </Description>
            <CodeListRef CodeListOID="CL.DURDISC"/>
            <def:Origin Type="Derived"/>
         </ItemDef>
         <ItemDef OID="IT.ADSL.VISIT1DT" Name="VISIT1DT" DataType="integer" Length="8"
                  SASFieldName="VISIT1DT"
                  def:DisplayFormat="DATE9.">
            <Description>
               <TranslatedText>Date of Visit 1</TranslatedText>
            </Description>
            <def:Origin Type="Derived"/>
         </ItemDef>
         <ItemDef OID="IT.ADSL.RFSTDTC" Name="RFSTDTC" DataType="text" Length="20"
                  SASFieldName="RFSTDTC">
            <Description>
               <TranslatedText>Subject Reference Start Date/Time</TranslatedText>
            </Description>
            <def:Origin Type="Derived"/>
         </ItemDef>
         <ItemDef OID="IT.ADSL.RFENDTC" Name="RFENDTC" DataType="text" Length="20"
                  SASFieldName="RFENDTC">
            <Description>
               <TranslatedText>Subject Reference End Date/Time</TranslatedText>
            </Description>
            <def:Origin Type="Derived"/>
         </ItemDef>
         <ItemDef OID="IT.ADSL.VISNUMEN" Name="VISNUMEN" DataType="integer" Length="8"
                  SASFieldName="VISNUMEN">
            <Description>
               <TranslatedText>End of Trt Visit (Vis 12 or Early Term.)</TranslatedText>
            </Description>
            <def:Origin Type="Derived"/>
         </ItemDef>
         <ItemDef OID="IT.ADSL.RFENDT" Name="RFENDT" DataType="integer" Length="8"
                  SASFieldName="RFENDT"
                  def:DisplayFormat="DATE9.">
            <Description>
               <TranslatedText>Date of Discontinuation/Completion</TranslatedText>
            </Description>
            <def:Origin Type="Derived"/>
         </ItemDef>
         <ItemDef OID="IT.ADSL.DCDECOD" Name="DCDECOD" DataType="text" Length="27"
                  SASFieldName="DCDECOD">
            <Description>
               <TranslatedText>Standardized Disposition Term</TranslatedText>
            </Description>
            <CodeListRef CodeListOID="CL.DISCCD"/>
            <def:Origin Type="Derived"/>
         </ItemDef>
         <ItemDef OID="IT.ADSL.EOSSTT" Name="EOSSTT" DataType="text" Length="12"
                  SASFieldName="EOSSTT">
            <Description>
               <TranslatedText>End of Study Status</TranslatedText>
            </Description>
            <def:Origin Type="Derived"/>
         </ItemDef>
         <ItemDef OID="IT.ADSL.DCSREAS" Name="DCSREAS" DataType="text" Length="18"
                  SASFieldName="DCSREAS">
            <Description>
               <TranslatedText>Reason for Discontinuation from Study</TranslatedText>
            </Description>
            <CodeListRef CodeListOID="CL.DISCREAS"/>
            <def:Origin Type="Derived"/>
         </ItemDef>
         <ItemDef OID="IT.ADSL.MMSETOT" Name="MMSETOT" DataType="integer" Length="8"
                  SASFieldName="MMSETOT">
            <Description>
               <TranslatedText>MMSE Total</TranslatedText>
            </Description>
            <def:Origin Type="Derived"/>
         </ItemDef>
         <ItemDef OID="IT.ADADAS.STUDYID" Name="STUDYID" DataType="text" Length="12"
                  SASFieldName="STUDYID">
            <Description>
               <TranslatedText>Study Identifier</TranslatedText>
            </Description>
            <def:Origin Type="Predecessor">
               <Description>
                  <TranslatedText>ADSL.STUDYID</TranslatedText>
               </Description>
            </def:Origin>
         </ItemDef>
         <ItemDef OID="IT.ADADAS.SITEID" Name="SITEID" DataType="text" Length="3"
                  SASFieldName="SITEID">
            <Description>
               <TranslatedText>Study Site Identifier</TranslatedText>
            </Description>
            <def:Origin Type="Predecessor">
               <Description>
                  <TranslatedText>DM.SITEID</TranslatedText>
               </Description>
            </def:Origin>
         </ItemDef>
         <ItemDef OID="IT.ADADAS.SITEGR1" Name="SITEGR1" DataType="text" Length="3"
                  SASFieldName="SITEGR1">
            <Description>
               <TranslatedText>Pooled Site Group 1</TranslatedText>
            </Description>
            <def:Origin Type="Predecessor">
               <Description>
                  <TranslatedText>ADSL.SITEGR1</TranslatedText>
               </Description>
            </def:Origin>
         </ItemDef>
         <ItemDef OID="IT.ADADAS.USUBJID" Name="USUBJID" DataType="text" Length="11"
                  SASFieldName="USUBJID">
            <Description>
               <TranslatedText>Unique Subject Identifier</TranslatedText>
            </Description>
            <def:Origin Type="Predecessor">
               <Description>
                  <TranslatedText>ADSL.USUBJID</TranslatedText>
               </Description>
            </def:Origin>
         </ItemDef>
         <ItemDef OID="IT.ADADAS.TRTSDT" Name="TRTSDT" DataType="integer" Length="8"
                  SASFieldName="TRTSDT"
                  def:DisplayFormat="DATE9.">
            <Description>
               <TranslatedText>Date of First Exposure to Treatment</TranslatedText>
            </Description>
            <def:Origin Type="Predecessor">
               <Description>
                  <TranslatedText>ADSL.TRTSDT</TranslatedText>
               </Description>
            </def:Origin>
         </ItemDef>
         <ItemDef OID="IT.ADADAS.TRTEDT" Name="TRTEDT" DataType="integer" Length="8"
                  SASFieldName="TRTEDT"
                  def:DisplayFormat="DATE9.">
            <Description>
               <TranslatedText>Date of Last Exposure to Treatment</TranslatedText>
            </Description>
            <def:Origin Type="Predecessor">
               <Description>
                  <TranslatedText>ADSL.TRTEDT</TranslatedText>
               </Description>
            </def:Origin>
         </ItemDef>
         <ItemDef OID="IT.ADADAS.TRTP" Name="TRTP" DataType="text" Length="20"
                  SASFieldName="TRTP">
            <Description>
               <TranslatedText>Planned Treatment</TranslatedText>
            </Description>
            <CodeListRef CodeListOID="CL.ARM"/>
            <def:Origin Type="Predecessor">
               <Description>
                  <TranslatedText>DM.ARM</TranslatedText>
               </Description>
            </def:Origin>
         </ItemDef>
         <ItemDef OID="IT.ADADAS.TRTPN" Name="TRTPN" DataType="integer" Length="8"
                  SASFieldName="TRTPN">
            <Description>
               <TranslatedText>Planned Treatment (N)</TranslatedText>
            </Description>
            <CodeListRef CodeListOID="CL.ARMN"/>
            <def:Origin Type="Predecessor">
               <Description>
                  <TranslatedText>ADSL.TRT01PN</TranslatedText>
               </Description>
            </def:Origin>
         </ItemDef>
         <ItemDef OID="IT.ADADAS.AGE" Name="AGE" DataType="integer" Length="8" SASFieldName="AGE">
            <Description>
               <TranslatedText>Age</TranslatedText>
            </Description>
            <def:Origin Type="Predecessor">
               <Description>
                  <TranslatedText>DM.AGE</TranslatedText>
               </Description>
            </def:Origin>
         </ItemDef>
         <ItemDef OID="IT.ADADAS.AGEGR1" Name="AGEGR1" DataType="text" Length="5"
                  SASFieldName="AGEGR1">
            <Description>
               <TranslatedText>Pooled Age Group 1</TranslatedText>
            </Description>
            <CodeListRef CodeListOID="CL.AGEGR1"/>
            <def:Origin Type="Predecessor">
               <Description>
                  <TranslatedText>ADSL.AGEGR1</TranslatedText>
               </Description>
            </def:Origin>
         </ItemDef>
         <ItemDef OID="IT.ADADAS.AGEGR1N" Name="AGEGR1N" DataType="integer" Length="8"
                  SASFieldName="AGEGR1N">
            <Description>
               <TranslatedText>Pooled Age Group 1 (N)</TranslatedText>
            </Description>
            <CodeListRef CodeListOID="CL.AGEGR1N"/>
            <def:Origin Type="Predecessor">
               <Description>
                  <TranslatedText>ADSL.AGEGR1N</TranslatedText>
               </Description>
            </def:Origin>
         </ItemDef>
         <ItemDef OID="IT.ADADAS.RACE" Name="RACE" DataType="text" Length="32"
                  SASFieldName="RACE">
            <Description>
               <TranslatedText>Race</TranslatedText>
            </Description>
            <CodeListRef CodeListOID="CL.RACE"/>
            <def:Origin Type="Predecessor">
               <Description>
                  <TranslatedText>DM.RACE</TranslatedText>
               </Description>
            </def:Origin>
         </ItemDef>
         <ItemDef OID="IT.ADADAS.RACEN" Name="RACEN" DataType="integer" Length="8"
                  SASFieldName="RACEN">
            <Description>
               <TranslatedText>Race (N)</TranslatedText>
            </Description>
            <CodeListRef CodeListOID="CL.RACEN"/>
            <def:Origin Type="Predecessor">
               <Description>
                  <TranslatedText>ADSL.RACEN</TranslatedText>
               </Description>
            </def:Origin>
         </ItemDef>
         <ItemDef OID="IT.ADADAS.SEX" Name="SEX" DataType="text" Length="1" SASFieldName="SEX">
            <Description>
               <TranslatedText>Sex</TranslatedText>
            </Description>
            <CodeListRef CodeListOID="CL.SEX"/>
            <def:Origin Type="Predecessor">
               <Description>
                  <TranslatedText>DM.SEX</TranslatedText>
               </Description>
            </def:Origin>
         </ItemDef>
         <ItemDef OID="IT.ADADAS.ITTFL" Name="ITTFL" DataType="text" Length="1"
                  SASFieldName="ITTFL">
            <Description>
               <TranslatedText>Intent-To-Treat Population Flag</TranslatedText>
            </Description>
            <CodeListRef CodeListOID="CL.YN"/>
            <def:Origin Type="Predecessor">
               <Description>
                  <TranslatedText>ADSL.ITTFL</TranslatedText>
               </Description>
            </def:Origin>
         </ItemDef>
         <ItemDef OID="IT.ADADAS.EFFFL" Name="EFFFL" DataType="text" Length="1"
                  SASFieldName="EFFFL">
            <Description>
               <TranslatedText>Efficacy Population Flag</TranslatedText>
            </Description>
            <CodeListRef CodeListOID="CL.YN"/>
            <def:Origin Type="Predecessor">
               <Description>
                  <TranslatedText>ADSL.EFFFL</TranslatedText>
               </Description>
            </def:Origin>
         </ItemDef>
         <ItemDef OID="IT.ADADAS.COMP24FL" Name="COMP24FL" DataType="text" Length="1"
                  SASFieldName="COMP24FL">
            <Description>
               <TranslatedText>Completers of Week 24 Population Flag</TranslatedText>
            </Description>
            <CodeListRef CodeListOID="CL.YN"/>
            <def:Origin Type="Predecessor">
               <Description>
                  <TranslatedText>ADSL.COMP24FL</TranslatedText>
               </Description>
            </def:Origin>
         </ItemDef>
         <ItemDef OID="IT.ADADAS.AVISIT" Name="AVISIT" DataType="text" Length="16"
                  SASFieldName="AVISIT">
            <Description>
               <TranslatedText>Analysis Visit</TranslatedText>
            </Description>
            <CodeListRef CodeListOID="CL.AVISIT"/>
            <def:Origin Type="Derived"/>
         </ItemDef>
         <ItemDef OID="IT.ADADAS.AVISITN" Name="AVISITN" DataType="integer" Length="8"
                  SASFieldName="AVISITN">
            <Description>
               <TranslatedText>Analysis Visit (N)</TranslatedText>
            </Description>
            <CodeListRef CodeListOID="CL.AVISITN"/>
            <def:Origin Type="Assigned"/>
         </ItemDef>
         <ItemDef OID="IT.ADADAS.VISIT" Name="VISIT" DataType="text" Length="19"
                  SASFieldName="VISIT">
            <Description>
               <TranslatedText>Visit Name</TranslatedText>
            </Description>
            <CodeListRef CodeListOID="CL.VISIT"/>
            <def:Origin Type="Predecessor">
               <Description>
                  <TranslatedText>QS.VISIT</TranslatedText>
               </Description>
            </def:Origin>
         </ItemDef>
         <ItemDef OID="IT.ADADAS.VISITNUM" Name="VISITNUM" DataType="float" Length="8"
                  SignificantDigits="1"
                  SASFieldName="VISITNUM">
            <Description>
               <TranslatedText>Visit Number</TranslatedText>
            </Description>
            <CodeListRef CodeListOID="CL.VISITNUM"/>
            <def:Origin Type="Predecessor">
               <Description>
                  <TranslatedText>QS.VISITNUM</TranslatedText>
               </Description>
            </def:Origin>
         </ItemDef>
         <ItemDef OID="IT.ADADAS.ADY" Name="ADY" DataType="integer" Length="8" SASFieldName="ADY">
            <Description>
               <TranslatedText>Analysis Relative Day</TranslatedText>
            </Description>
            <def:Origin Type="Derived"/>
         </ItemDef>
         <ItemDef OID="IT.ADADAS.ADT" Name="ADT" DataType="integer" Length="8" SASFieldName="ADT"
                  def:DisplayFormat="DATE9.">
            <Description>
               <TranslatedText>Analysis Date</TranslatedText>
            </Description>
            <def:Origin Type="Derived"/>
         </ItemDef>
         <ItemDef OID="IT.ADADAS.PARAM" Name="PARAM" DataType="text" Length="100"
                  SASFieldName="PARAM"
                  def:CommentOID="COM.ADADAS.PARAM">
            <Description>
               <TranslatedText>Parameter</TranslatedText>
            </Description>
            <CodeListRef CodeListOID="CL.PARAM_ADQSADAS"/>
            <def:Origin Type="Assigned"/>
         </ItemDef>
         <ItemDef OID="IT.ADADAS.PARAMCD" Name="PARAMCD" DataType="text" Length="8"
                  SASFieldName="PARAMCD">
            <Description>
               <TranslatedText>Parameter Code</TranslatedText>
            </Description>
            <CodeListRef CodeListOID="CL.PARAMCD_ADQSADAS"/>
            <def:Origin Type="Predecessor">
               <Description>
                  <TranslatedText>QS.QSTESTCD</TranslatedText>
               </Description>
            </def:Origin>
         </ItemDef>
         <ItemDef OID="IT.ADADAS.PARAMN" Name="PARAMN" DataType="integer" Length="8"
                  SASFieldName="PARAMN"
                  def:CommentOID="COM.ADADAS.PARAMN">
            <Description>
               <TranslatedText>Parameter (N)</TranslatedText>
            </Description>
            <CodeListRef CodeListOID="CL.PARAMN_ADQSADAS"/>
            <def:Origin Type="Assigned"/>
         </ItemDef>
         <ItemDef OID="IT.ADADAS.AVAL" Name="AVAL" DataType="float" Length="16"
                  SignificantDigits="13"
                  SASFieldName="AVAL">
            <Description>
               <TranslatedText>Analysis Value</TranslatedText>
            </Description>
            <def:Origin Type="Derived"/>
            <def:ValueListRef ValueListOID="VL.ADADAS.AVAL"/>
         </ItemDef>
         <ItemDef OID="IT.ADADAS.BASE" Name="BASE" DataType="integer" Length="8"
                  SASFieldName="BASE">
            <Description>
               <TranslatedText>Baseline Value</TranslatedText>
            </Description>
            <def:Origin Type="Derived"/>
         </ItemDef>
         <ItemDef OID="IT.ADADAS.CHG" Name="CHG" DataType="integer" Length="8" SASFieldName="CHG">
            <Description>
               <TranslatedText>Change from Baseline</TranslatedText>
            </Description>
            <def:Origin Type="Derived"/>
         </ItemDef>
         <ItemDef OID="IT.ADADAS.PCHG" Name="PCHG" DataType="integer" Length="8"
                  SASFieldName="PCHG">
            <Description>
               <TranslatedText>Percent Change from Baseline</TranslatedText>
            </Description>
            <def:Origin Type="Derived"/>
         </ItemDef>
         <ItemDef OID="IT.ADADAS.ABLFL" Name="ABLFL" DataType="text" Length="1"
                  SASFieldName="ABLFL">
            <Description>
               <TranslatedText>Baseline Record Flag</TranslatedText>
            </Description>
            <def:Origin Type="Predecessor">
               <Description>
                  <TranslatedText>QS.QSBLFL</TranslatedText>
               </Description>
            </def:Origin>
         </ItemDef>
         <ItemDef OID="IT.ADADAS.ANL01FL" Name="ANL01FL" DataType="text" Length="1"
                  SASFieldName="ANL01FL">
            <Description>
               <TranslatedText>Analysis Flag 01</TranslatedText>
            </Description>
            <def:Origin Type="Derived"/>
         </ItemDef>
         <ItemDef OID="IT.ADADAS.DTYPE" Name="DTYPE" DataType="text" Length="7"
                  SASFieldName="DTYPE">
            <Description>
               <TranslatedText>Derivation Type</TranslatedText>
            </Description>
            <CodeListRef CodeListOID="CL.DTYPE"/>
            <def:Origin Type="Derived"/>
         </ItemDef>
         <ItemDef OID="IT.ADADAS.AWRANGE" Name="AWRANGE" DataType="text" Length="9"
                  SASFieldName="AWRANGE"
                  def:CommentOID="COM.ADADAS.AWRANGE">
            <Description>
               <TranslatedText>Analysis Window Valid Relative Range</TranslatedText>
            </Description>
            <def:Origin Type="Assigned"/>
         </ItemDef>
         <ItemDef OID="IT.ADADAS.AWTARGET" Name="AWTARGET" DataType="integer" Length="8"
                  SASFieldName="AWTARGET"
                  def:CommentOID="COM.ADADAS.AWTARGET">
            <Description>
               <TranslatedText>Analysis Window Target</TranslatedText>
            </Description>
            <def:Origin Type="Assigned"/>
         </ItemDef>
         <ItemDef OID="IT.ADADAS.AWTDIFF" Name="AWTDIFF" DataType="integer" Length="8"
                  SASFieldName="AWTDIFF"
                  def:CommentOID="COM.ADADAS.AWTDIFF">
            <Description>
               <TranslatedText>Analysis Window Diff from Target</TranslatedText>
            </Description>
            <def:Origin Type="Assigned"/>
         </ItemDef>
         <ItemDef OID="IT.ADADAS.AWLO" Name="AWLO" DataType="integer" Length="8"
                  SASFieldName="AWLO"
                  def:CommentOID="COM.ADADAS.AWLO">
            <Description>
               <TranslatedText>Analysis Window Beginning Timepoint</TranslatedText>
            </Description>
            <def:Origin Type="Assigned"/>
         </ItemDef>
         <ItemDef OID="IT.ADADAS.AWHI" Name="AWHI" DataType="integer" Length="8"
                  SASFieldName="AWHI"
                  def:CommentOID="COM.ADADAS.AWHI">
            <Description>
               <TranslatedText>Analysis Window Ending Timepoint</TranslatedText>
            </Description>
            <def:Origin Type="Assigned"/>
         </ItemDef>
         <ItemDef OID="IT.ADADAS.AWU" Name="AWU" DataType="text" Length="4" SASFieldName="AWU"
                  def:CommentOID="COM.ADADAS.AWU">
            <Description>
               <TranslatedText>Analysis Window Unit</TranslatedText>
            </Description>
            <CodeListRef CodeListOID="CL.AWU"/>
            <def:Origin Type="Assigned"/>
         </ItemDef>
         <ItemDef OID="IT.ADADAS.QSSEQ" Name="QSSEQ" DataType="integer" Length="8"
                  SASFieldName="QSSEQ">
            <Description>
               <TranslatedText>Sequence Number</TranslatedText>
            </Description>
            <def:Origin Type="Predecessor">
               <Description>
                  <TranslatedText>QS.QSSEQ</TranslatedText>
               </Description>
            </def:Origin>
         </ItemDef>
         <ItemDef OID="IT.ADLBC.STUDYID" Name="STUDYID" DataType="text" Length="12"
                  SASFieldName="STUDYID">
            <Description>
               <TranslatedText>Study Identifier</TranslatedText>
            </Description>
            <def:Origin Type="Predecessor">
               <Description>
                  <TranslatedText>ADSL.STUDYID</TranslatedText>
               </Description>
            </def:Origin>
         </ItemDef>
         <ItemDef OID="IT.ADLBC.SUBJID" Name="SUBJID" DataType="text" Length="4"
                  SASFieldName="SUBJID">
            <Description>
               <TranslatedText>Subject Identifier for the Study</TranslatedText>
            </Description>
            <def:Origin Type="Predecessor">
               <Description>
                  <TranslatedText>ADSL.SUBJID</TranslatedText>
               </Description>
            </def:Origin>
         </ItemDef>
         <ItemDef OID="IT.ADLBC.USUBJID" Name="USUBJID" DataType="text" Length="11"
                  SASFieldName="USUBJID">
            <Description>
               <TranslatedText>Unique Subject Identifier</TranslatedText>
            </Description>
            <def:Origin Type="Predecessor">
               <Description>
                  <TranslatedText>ADSL.USUBJID</TranslatedText>
               </Description>
            </def:Origin>
         </ItemDef>
         <ItemDef OID="IT.ADLBC.TRTP" Name="TRTP" DataType="text" Length="20" SASFieldName="TRTP">
            <Description>
               <TranslatedText>Planned Treatment</TranslatedText>
            </Description>
            <CodeListRef CodeListOID="CL.ARM"/>
            <def:Origin Type="Derived"/>
         </ItemDef>
         <ItemDef OID="IT.ADLBC.TRTPN" Name="TRTPN" DataType="integer" Length="8"
                  SASFieldName="TRTPN">
            <Description>
               <TranslatedText>Planned Treatment (N)</TranslatedText>
            </Description>
            <CodeListRef CodeListOID="CL.ARMN"/>
            <def:Origin Type="Derived"/>
         </ItemDef>
         <ItemDef OID="IT.ADLBC.TRTA" Name="TRTA" DataType="text" Length="20" SASFieldName="TRTA">
            <Description>
               <TranslatedText>Actual Treatment</TranslatedText>
            </Description>
            <CodeListRef CodeListOID="CL.ARM"/>
            <def:Origin Type="Derived"/>
         </ItemDef>
         <ItemDef OID="IT.ADLBC.TRTAN" Name="TRTAN" DataType="integer" Length="8"
                  SASFieldName="TRTAN">
            <Description>
               <TranslatedText>Actual Treatment (N)</TranslatedText>
            </Description>
            <CodeListRef CodeListOID="CL.ARMN"/>
            <def:Origin Type="Derived"/>
         </ItemDef>
         <ItemDef OID="IT.ADLBC.TRTSDT" Name="TRTSDT" DataType="integer" Length="8"
                  SASFieldName="TRTSDT"
                  def:DisplayFormat="DATE9.">
            <Description>
               <TranslatedText>Date of First Exposure to Treatment</TranslatedText>
            </Description>
            <def:Origin Type="Predecessor">
               <Description>
                  <TranslatedText>ADSL.TRTSDT</TranslatedText>
               </Description>
            </def:Origin>
         </ItemDef>
         <ItemDef OID="IT.ADLBC.TRTEDT" Name="TRTEDT" DataType="integer" Length="8"
                  SASFieldName="TRTEDT"
                  def:DisplayFormat="DATE9.">
            <Description>
               <TranslatedText>Date of Last Exposure to Treatment</TranslatedText>
            </Description>
            <def:Origin Type="Predecessor">
               <Description>
                  <TranslatedText>ADSL.TRTEDT</TranslatedText>
               </Description>
            </def:Origin>
         </ItemDef>
         <ItemDef OID="IT.ADLBC.AGE" Name="AGE" DataType="integer" Length="8" SASFieldName="AGE">
            <Description>
               <TranslatedText>Age</TranslatedText>
            </Description>
            <def:Origin Type="Predecessor">
               <Description>
                  <TranslatedText>ADSL.AGE</TranslatedText>
               </Description>
            </def:Origin>
         </ItemDef>
         <ItemDef OID="IT.ADLBC.AGEGR1" Name="AGEGR1" DataType="text" Length="5"
                  SASFieldName="AGEGR1">
            <Description>
               <TranslatedText>Pooled Age Group 1</TranslatedText>
            </Description>
            <CodeListRef CodeListOID="CL.AGEGR1"/>
            <def:Origin Type="Predecessor">
               <Description>
                  <TranslatedText>ADSL.AGEGR1</TranslatedText>
               </Description>
            </def:Origin>
         </ItemDef>
         <ItemDef OID="IT.ADLBC.AGEGR1N" Name="AGEGR1N" DataType="integer" Length="8"
                  SASFieldName="AGEGR1N">
            <Description>
               <TranslatedText>Pooled Age Group 1 (N)</TranslatedText>
            </Description>
            <CodeListRef CodeListOID="CL.AGEGR1N"/>
            <def:Origin Type="Predecessor">
               <Description>
                  <TranslatedText>ADSL.AGEGR1N</TranslatedText>
               </Description>
            </def:Origin>
         </ItemDef>
         <ItemDef OID="IT.ADLBC.RACE" Name="RACE" DataType="text" Length="32" SASFieldName="RACE">
            <Description>
               <TranslatedText>Race</TranslatedText>
            </Description>
            <CodeListRef CodeListOID="CL.RACE"/>
            <def:Origin Type="Predecessor">
               <Description>
                  <TranslatedText>ADSL.RACE</TranslatedText>
               </Description>
            </def:Origin>
         </ItemDef>
         <ItemDef OID="IT.ADLBC.RACEN" Name="RACEN" DataType="integer" Length="8"
                  SASFieldName="RACEN">
            <Description>
               <TranslatedText>Race (N)</TranslatedText>
            </Description>
            <CodeListRef CodeListOID="CL.RACEN"/>
            <def:Origin Type="Predecessor">
               <Description>
                  <TranslatedText>ADSL.RACEN</TranslatedText>
               </Description>
            </def:Origin>
         </ItemDef>
         <ItemDef OID="IT.ADLBC.SEX" Name="SEX" DataType="text" Length="1" SASFieldName="SEX">
            <Description>
               <TranslatedText>Sex</TranslatedText>
            </Description>
            <CodeListRef CodeListOID="CL.SEX"/>
            <def:Origin Type="Predecessor">
               <Description>
                  <TranslatedText>ADSL.SEX</TranslatedText>
               </Description>
            </def:Origin>
         </ItemDef>
         <ItemDef OID="IT.ADLBC.COMP24FL" Name="COMP24FL" DataType="text" Length="1"
                  SASFieldName="COMP24FL">
            <Description>
               <TranslatedText>Completers of Week 24 Population Flag</TranslatedText>
            </Description>
            <CodeListRef CodeListOID="CL.YN"/>
            <def:Origin Type="Predecessor">
               <Description>
                  <TranslatedText>ADSL.COM01P24FL</TranslatedText>
               </Description>
            </def:Origin>
         </ItemDef>
         <ItemDef OID="IT.ADLBC.DSRAEFL" Name="DSRAEFL" DataType="text" Length="1"
                  SASFieldName="DSRAEFL">
            <Description>
               <TranslatedText>Discontinued due to AE?</TranslatedText>
            </Description>
            <CodeListRef CodeListOID="CL.YN"/>
            <def:Origin Type="Predecessor">
               <Description>
                  <TranslatedText>ADSL.DSR01AEFL</TranslatedText>
               </Description>
            </def:Origin>
         </ItemDef>
         <ItemDef OID="IT.ADLBC.SAFFL" Name="SAFFL" DataType="text" Length="1"
                  SASFieldName="SAFFL">
            <Description>
               <TranslatedText>Safety Population Flag</TranslatedText>
            </Description>
            <CodeListRef CodeListOID="CL.YN"/>
            <def:Origin Type="Predecessor">
               <Description>
                  <TranslatedText>ADSL.SAF01FL</TranslatedText>
               </Description>
            </def:Origin>
         </ItemDef>
         <ItemDef OID="IT.ADLBC.AVISIT" Name="AVISIT" DataType="text" Length="16"
                  SASFieldName="AVISIT">
            <Description>
               <TranslatedText>Analysis Visit</TranslatedText>
            </Description>
            <CodeListRef CodeListOID="CL.AVISIT"/>
            <def:Origin Type="Derived"/>
         </ItemDef>
         <ItemDef OID="IT.ADLBC.AVISITN" Name="AVISITN" DataType="integer" Length="8"
                  SASFieldName="AVISITN">
            <Description>
               <TranslatedText>Analysis Visit (N)</TranslatedText>
            </Description>
            <CodeListRef CodeListOID="CL.AVISITN"/>
            <def:Origin Type="Assigned"/>
         </ItemDef>
         <ItemDef OID="IT.ADLBC.ADY" Name="ADY" DataType="integer" Length="8" SASFieldName="ADY">
            <Description>
               <TranslatedText>Analysis Relative Day</TranslatedText>
            </Description>
            <def:Origin Type="Derived"/>
         </ItemDef>
         <ItemDef OID="IT.ADLBC.ADT" Name="ADT" DataType="integer" Length="8" SASFieldName="ADT"
                  def:DisplayFormat="DATE9.">
            <Description>
               <TranslatedText>Analysis Date</TranslatedText>
            </Description>
            <def:Origin Type="Derived"/>
         </ItemDef>
         <ItemDef OID="IT.ADLBC.VISIT" Name="VISIT" DataType="text" Length="19"
                  SASFieldName="VISIT">
            <Description>
               <TranslatedText>Visit Name</TranslatedText>
            </Description>
            <CodeListRef CodeListOID="CL.VISIT"/>
            <def:Origin Type="Predecessor">
               <Description>
                  <TranslatedText>LB.VISIT</TranslatedText>
               </Description>
            </def:Origin>
         </ItemDef>
         <ItemDef OID="IT.ADLBC.VISITNUM" Name="VISITNUM" DataType="float" Length="8"
                  SignificantDigits="1"
                  SASFieldName="VISITNUM">
            <Description>
               <TranslatedText>Visit Number</TranslatedText>
            </Description>
            <CodeListRef CodeListOID="CL.VISITNUM"/>
            <def:Origin Type="Predecessor">
               <Description>
                  <TranslatedText>LB.VISITNUM</TranslatedText>
               </Description>
            </def:Origin>
         </ItemDef>
         <ItemDef OID="IT.ADLBC.PARAM" Name="PARAM" DataType="text" Length="100"
                  SASFieldName="PARAM">
            <Description>
               <TranslatedText>Parameter</TranslatedText>
            </Description>
            <CodeListRef CodeListOID="CL.PARAM_ADLBC"/>
            <def:Origin Type="Derived"/>
         </ItemDef>
         <ItemDef OID="IT.ADLBC.PARAMCD" Name="PARAMCD" DataType="text" Length="8"
                  SASFieldName="PARAMCD">
            <Description>
               <TranslatedText>Parameter Code</TranslatedText>
            </Description>
            <CodeListRef CodeListOID="CL.PARAMCD_ADLBC"/>
            <def:Origin Type="Predecessor">
               <Description>
                  <TranslatedText>LB.TESTCD</TranslatedText>
               </Description>
            </def:Origin>
         </ItemDef>
         <ItemDef OID="IT.ADLBC.PARAMN" Name="PARAMN" DataType="integer" Length="8"
                  SASFieldName="PARAMN">
            <Description>
               <TranslatedText>Parameter (N)</TranslatedText>
            </Description>
            <CodeListRef CodeListOID="CL.PARAMN_ADLBC"/>
            <def:Origin Type="Derived"/>
         </ItemDef>
         <ItemDef OID="IT.ADLBC.PARCAT1" Name="PARCAT1" DataType="text" Length="5"
                  SASFieldName="PARCAT1">
            <Description>
               <TranslatedText>Parameter Category 1</TranslatedText>
            </Description>
            <CodeListRef CodeListOID="CL.ADLBCAT"/>
            <def:Origin Type="Assigned"/>
         </ItemDef>
         <ItemDef OID="IT.ADLBC.AVAL" Name="AVAL" DataType="float" Length="8"
                  SignificantDigits="5"
                  SASFieldName="AVAL">
            <Description>
               <TranslatedText>Analysis Value</TranslatedText>
            </Description>
            <def:Origin Type="Predecessor">
               <Description>
                  <TranslatedText>LB.LBSTRESN</TranslatedText>
               </Description>
            </def:Origin>
         </ItemDef>
         <ItemDef OID="IT.ADLBC.BASE" Name="BASE" DataType="float" Length="8"
                  SignificantDigits="5"
                  SASFieldName="BASE">
            <Description>
               <TranslatedText>Baseline Value</TranslatedText>
            </Description>
            <def:Origin Type="Derived"/>
         </ItemDef>
         <ItemDef OID="IT.ADLBC.CHG" Name="CHG" DataType="float" Length="8" SignificantDigits="5"
                  SASFieldName="CHG">
            <Description>
               <TranslatedText>Change from Baseline</TranslatedText>
            </Description>
            <def:Origin Type="Derived"/>
         </ItemDef>
         <ItemDef OID="IT.ADLBC.A1LO" Name="A1LO" DataType="float" Length="8"
                  SignificantDigits="5"
                  SASFieldName="A1LO">
            <Description>
               <TranslatedText>Analysis Range 1 Lower Limit</TranslatedText>
            </Description>
            <def:Origin Type="Derived"/>
         </ItemDef>
         <ItemDef OID="IT.ADLBC.A1HI" Name="A1HI" DataType="float" Length="8"
                  SignificantDigits="5"
                  SASFieldName="A1HI">
            <Description>
               <TranslatedText>Analysis Range 1 Upper Limit</TranslatedText>
            </Description>
            <def:Origin Type="Derived"/>
         </ItemDef>
         <ItemDef OID="IT.ADLBC.R2A1LO" Name="R2A1LO" DataType="float" Length="8"
                  SignificantDigits="1"
                  SASFieldName="R2A1LO">
            <Description>
               <TranslatedText>Ratio to Analysis Range 1 Lower Limit</TranslatedText>
            </Description>
            <def:Origin Type="Derived"/>
         </ItemDef>
         <ItemDef OID="IT.ADLBC.R2A1HI" Name="R2A1HI" DataType="float" Length="8"
                  SignificantDigits="1"
                  SASFieldName="R2A1HI">
            <Description>
               <TranslatedText>Ratio to Analysis Range 1 Upper Limit</TranslatedText>
            </Description>
            <def:Origin Type="Derived"/>
         </ItemDef>
         <ItemDef OID="IT.ADLBC.BR2A1LO" Name="BR2A1LO" DataType="float" Length="8"
                  SignificantDigits="1"
                  SASFieldName="BR2A1LO">
            <Description>
               <TranslatedText>Base Ratio to Analysis Range 1 Lower Lim</TranslatedText>
            </Description>
            <def:Origin Type="Derived"/>
         </ItemDef>
         <ItemDef OID="IT.ADLBC.BR2A1HI" Name="BR2A1HI" DataType="float" Length="8"
                  SignificantDigits="1"
                  SASFieldName="BR2A1HI">
            <Description>
               <TranslatedText>Base Ratio to Analysis Range 1 Upper Lim</TranslatedText>
            </Description>
            <def:Origin Type="Derived"/>
         </ItemDef>
         <ItemDef OID="IT.ADLBC.ANL01FL" Name="ANL01FL" DataType="text" Length="1"
                  SASFieldName="ANL01FL">
            <Description>
               <TranslatedText>Analysis Flag 01</TranslatedText>
            </Description>
            <def:Origin Type="Assigned"/>
         </ItemDef>
         <ItemDef OID="IT.ADLBC.ALBTRVAL" Name="ALBTRVAL" DataType="float" Length="8"
                  SignificantDigits="3"
                  SASFieldName="ALBTRVAL">
            <Description>
               <TranslatedText>Amount Threshold Range</TranslatedText>
            </Description>
            <def:Origin Type="Derived"/>
         </ItemDef>
         <ItemDef OID="IT.ADLBC.ANRIND" Name="ANRIND" DataType="text" Length="1"
                  SASFieldName="ANRIND">
            <Description>
               <TranslatedText>Analysis Reference Range Indicator</TranslatedText>
            </Description>
            <CodeListRef CodeListOID="CL.LNH"/>
            <def:Origin Type="Derived"/>
         </ItemDef>
         <ItemDef OID="IT.ADLBC.BNRIND" Name="BNRIND" DataType="text" Length="1"
                  SASFieldName="BNRIND">
            <Description>
               <TranslatedText>Baseline Reference Range Indicator</TranslatedText>
            </Description>
            <CodeListRef CodeListOID="CL.LNH"/>
            <def:Origin Type="Derived"/>
         </ItemDef>
         <ItemDef OID="IT.ADLBC.ABLFL" Name="ABLFL" DataType="text" Length="1"
                  SASFieldName="ABLFL">
            <Description>
               <TranslatedText>Baseline Record Flag</TranslatedText>
            </Description>
            <def:Origin Type="Predecessor">
               <Description>
                  <TranslatedText>LB.LBBLFL</TranslatedText>
               </Description>
            </def:Origin>
         </ItemDef>
         <ItemDef OID="IT.ADLBC.AENTMTFL" Name="AENTMTFL" DataType="text" Length="1"
                  SASFieldName="AENTMTFL">
            <Description>
               <TranslatedText>Last value in treatment visit</TranslatedText>
            </Description>
            <def:Origin Type="Derived"/>
         </ItemDef>
         <ItemDef OID="IT.ADLBC.LBSEQ" Name="LBSEQ" DataType="integer" Length="8"
                  SASFieldName="LBSEQ">
            <Description>
               <TranslatedText>Sequence Number</TranslatedText>
            </Description>
            <def:Origin Type="Predecessor">
               <Description>
                  <TranslatedText>LB.LBSEQ</TranslatedText>
               </Description>
            </def:Origin>
         </ItemDef>
         <ItemDef OID="IT.ADLBC.LBNRIND" Name="LBNRIND" DataType="text" Length="8"
                  SASFieldName="LBNRIND">
            <Description>
               <TranslatedText>Reference Range Indicator</TranslatedText>
            </Description>
            <CodeListRef CodeListOID="CL.LBNRIND"/>
            <def:Origin Type="Predecessor">
               <Description>
                  <TranslatedText>LB.LBNRIND</TranslatedText>
               </Description>
            </def:Origin>
         </ItemDef>
         <ItemDef OID="IT.ADLBC.LBSTRESN" Name="LBSTRESN" DataType="float" Length="8"
                  SignificantDigits="5"
                  SASFieldName="LBSTRESN">
            <Description>
               <TranslatedText>Numeric Result/Finding in Standard Units</TranslatedText>
            </Description>
            <def:Origin Type="Predecessor">
               <Description>
                  <TranslatedText>LB.LBSTRESN</TranslatedText>
               </Description>
            </def:Origin>
         </ItemDef>
         <ItemDef OID="IT.ADTTE.STUDYID" Name="STUDYID" DataType="text" Length="12"
                  SASFieldName="STUDYID">
            <Description>
               <TranslatedText>Study Identifier</TranslatedText>
            </Description>
            <def:Origin Type="Predecessor">
               <Description>
                  <TranslatedText>ADSL.STUDYID</TranslatedText>
               </Description>
            </def:Origin>
         </ItemDef>
         <ItemDef OID="IT.ADTTE.SITEID" Name="SITEID" DataType="text" Length="3"
                  SASFieldName="SITEID">
            <Description>
               <TranslatedText>Study Site Identifier</TranslatedText>
            </Description>
            <def:Origin Type="Derived"/>
         </ItemDef>
         <ItemDef OID="IT.ADTTE.USUBJID" Name="USUBJID" DataType="text" Length="11"
                  SASFieldName="USUBJID">
            <Description>
               <TranslatedText>Unique Subject Identifier</TranslatedText>
            </Description>
            <def:Origin Type="Predecessor">
               <Description>
                  <TranslatedText>ADSL.USUBJID</TranslatedText>
               </Description>
            </def:Origin>
         </ItemDef>
         <ItemDef OID="IT.ADTTE.AGE" Name="AGE" DataType="integer" Length="8" SASFieldName="AGE">
            <Description>
               <TranslatedText>Age</TranslatedText>
            </Description>
            <def:Origin Type="Derived"/>
         </ItemDef>
         <ItemDef OID="IT.ADTTE.AGEGR1" Name="AGEGR1" DataType="text" Length="5"
                  SASFieldName="AGEGR1">
            <Description>
               <TranslatedText>Pooled Age Group 1</TranslatedText>
            </Description>
            <CodeListRef CodeListOID="CL.AGEGR1"/>
            <def:Origin Type="Derived"/>
         </ItemDef>
         <ItemDef OID="IT.ADTTE.AGEGR1N" Name="AGEGR1N" DataType="integer" Length="8"
                  SASFieldName="AGEGR1N">
            <Description>
               <TranslatedText>Pooled Age Group 1 (N)</TranslatedText>
            </Description>
            <CodeListRef CodeListOID="CL.AGEGR1N"/>
            <def:Origin Type="Derived"/>
         </ItemDef>
         <ItemDef OID="IT.ADTTE.RACE" Name="RACE" DataType="text" Length="32" SASFieldName="RACE">
            <Description>
               <TranslatedText>Race</TranslatedText>
            </Description>
            <CodeListRef CodeListOID="CL.RACE"/>
            <def:Origin Type="Derived"/>
         </ItemDef>
         <ItemDef OID="IT.ADTTE.RACEN" Name="RACEN" DataType="integer" Length="8"
                  SASFieldName="RACEN">
            <Description>
               <TranslatedText>Race (N)</TranslatedText>
            </Description>
            <CodeListRef CodeListOID="CL.RACEN"/>
            <def:Origin Type="Derived"/>
         </ItemDef>
         <ItemDef OID="IT.ADTTE.SEX" Name="SEX" DataType="text" Length="1" SASFieldName="SEX">
            <Description>
               <TranslatedText>Sex</TranslatedText>
            </Description>
            <CodeListRef CodeListOID="CL.SEX"/>
            <def:Origin Type="Derived"/>
         </ItemDef>
         <ItemDef OID="IT.ADTTE.TRTSDT" Name="TRTSDT" DataType="integer" Length="8"
                  SASFieldName="TRTSDT"
                  def:DisplayFormat="DATE9.">
            <Description>
               <TranslatedText>Date of First Exposure to Treatment</TranslatedText>
            </Description>
            <def:Origin Type="Derived"/>
         </ItemDef>
         <ItemDef OID="IT.ADTTE.TRTEDT" Name="TRTEDT" DataType="integer" Length="8"
                  SASFieldName="TRTEDT"
                  def:DisplayFormat="DATE9.">
            <Description>
               <TranslatedText>Date of Last Exposure to Treatment</TranslatedText>
            </Description>
            <def:Origin Type="Derived"/>
         </ItemDef>
         <ItemDef OID="IT.ADTTE.TRTDUR" Name="TRTDUR" DataType="integer" Length="8"
                  SASFieldName="TRTDUR">
            <Description>
               <TranslatedText>Duration of treatment (days)</TranslatedText>
            </Description>
            <def:Origin Type="Derived"/>
         </ItemDef>
         <ItemDef OID="IT.ADTTE.TRTP" Name="TRTP" DataType="text" Length="20" SASFieldName="TRTP">
            <Description>
               <TranslatedText>Planned Treatment</TranslatedText>
            </Description>
            <CodeListRef CodeListOID="CL.ARM"/>
            <def:Origin Type="Derived"/>
         </ItemDef>
         <ItemDef OID="IT.ADTTE.TRTA" Name="TRTA" DataType="text" Length="20" SASFieldName="TRTA">
            <Description>
               <TranslatedText>Actual Treatment</TranslatedText>
            </Description>
            <CodeListRef CodeListOID="CL.ARM"/>
            <def:Origin Type="Derived"/>
         </ItemDef>
         <ItemDef OID="IT.ADTTE.TRTAN" Name="TRTAN" DataType="integer" Length="8"
                  SASFieldName="TRTAN">
            <Description>
               <TranslatedText>Actual Treatment (N)</TranslatedText>
            </Description>
            <CodeListRef CodeListOID="CL.ARMN"/>
            <def:Origin Type="Derived"/>
         </ItemDef>
         <ItemDef OID="IT.ADTTE.PARAM" Name="PARAM" DataType="text" Length="100"
                  SASFieldName="PARAM">
            <Description>
               <TranslatedText>Parameter</TranslatedText>
            </Description>
            <CodeListRef CodeListOID="CL.PARAM_ADTTE"/>
            <def:Origin Type="Derived"/>
         </ItemDef>
         <ItemDef OID="IT.ADTTE.PARAMCD" Name="PARAMCD" DataType="text" Length="8"
                  SASFieldName="PARAMCD">
            <Description>
               <TranslatedText>Parameter Code</TranslatedText>
            </Description>
            <CodeListRef CodeListOID="CL.PARAMCD_ADTTE"/>
            <def:Origin Type="Derived"/>
         </ItemDef>
         <ItemDef OID="IT.ADTTE.AVAL" Name="AVAL" DataType="integer" Length="8"
                  SASFieldName="AVAL">
            <Description>
               <TranslatedText>Analysis Value</TranslatedText>
            </Description>
            <def:Origin Type="Derived"/>
         </ItemDef>
         <ItemDef OID="IT.ADTTE.STARTDT" Name="STARTDT" DataType="integer" Length="8"
                  SASFieldName="STARTDT"
                  def:DisplayFormat="DATE9.">
            <Description>
               <TranslatedText>Time-to-Event Origin Date for Subject</TranslatedText>
            </Description>
            <def:Origin Type="Derived"/>
         </ItemDef>
         <ItemDef OID="IT.ADTTE.ADT" Name="ADT" DataType="integer" Length="8" SASFieldName="ADT"
                  def:DisplayFormat="DATE9.">
            <Description>
               <TranslatedText>Analysis Date</TranslatedText>
            </Description>
            <def:Origin Type="Derived"/>
         </ItemDef>
         <ItemDef OID="IT.ADTTE.CNSR" Name="CNSR" DataType="integer" Length="8"
                  SASFieldName="CNSR">
            <Description>
               <TranslatedText>Censor</TranslatedText>
            </Description>
            <CodeListRef CodeListOID="CL.CENSOR"/>
            <def:Origin Type="Derived"/>
         </ItemDef>
         <ItemDef OID="IT.ADTTE.EVNTDESC" Name="EVNTDESC" DataType="text" Length="25"
                  SASFieldName="EVNTDESC">
            <Description>
               <TranslatedText>Event or Censoring Description</TranslatedText>
            </Description>
            <def:Origin Type="Derived"/>
         </ItemDef>
         <ItemDef OID="IT.ADTTE.SRCDOM" Name="SRCDOM" DataType="text" Length="4"
                  SASFieldName="SRCDOM">
            <Description>
               <TranslatedText>Source Data</TranslatedText>
            </Description>
            <def:Origin Type="Derived"/>
         </ItemDef>
         <ItemDef OID="IT.ADTTE.SRCVAR" Name="SRCVAR" DataType="text" Length="6"
                  SASFieldName="SRCVAR">
            <Description>
               <TranslatedText>Source Variable</TranslatedText>
            </Description>
            <def:Origin Type="Derived"/>
         </ItemDef>
         <ItemDef OID="IT.ADTTE.SRCSEQ" Name="SRCSEQ" DataType="integer" Length="8"
                  SASFieldName="SRCSEQ">
            <Description>
               <TranslatedText>Source Sequence Number</TranslatedText>
            </Description>
            <def:Origin Type="Derived"/>
         </ItemDef>
         <ItemDef OID="IT.ADTTE.SAFFL" Name="SAFFL" DataType="text" Length="1"
                  SASFieldName="SAFFL">
            <Description>
               <TranslatedText>Safety Population Flag</TranslatedText>
            </Description>
            <CodeListRef CodeListOID="CL.YN"/>
            <def:Origin Type="Derived"/>
         </ItemDef>
         <ItemDef OID="IT.ADAE.STUDYID" Name="STUDYID" DataType="text" Length="12"
                  SASFieldName="STUDYID">
            <Description>
               <TranslatedText>Study Identifier</TranslatedText>
            </Description>
            <def:Origin Type="Predecessor">
               <Description>
                  <TranslatedText>ADSL.STUDYID</TranslatedText>
               </Description>
            </def:Origin>
         </ItemDef>
         <ItemDef OID="IT.ADAE.SITEID" Name="SITEID" DataType="text" Length="3"
                  SASFieldName="SITEID">
            <Description>
               <TranslatedText>Study Site Identifier</TranslatedText>
            </Description>
            <def:Origin Type="Derived"/>
         </ItemDef>
         <ItemDef OID="IT.ADAE.USUBJID" Name="USUBJID" DataType="text" Length="11"
                  SASFieldName="USUBJID">
            <Description>
               <TranslatedText>Unique Subject Identifier</TranslatedText>
            </Description>
            <def:Origin Type="Predecessor">
               <Description>
                  <TranslatedText>ADSL.USUBJID</TranslatedText>
               </Description>
            </def:Origin>
         </ItemDef>
         <ItemDef OID="IT.ADAE.TRTA" Name="TRTA" DataType="text" Length="20" SASFieldName="TRTA">
            <Description>
               <TranslatedText>Actual Treatment</TranslatedText>
            </Description>
            <CodeListRef CodeListOID="CL.ARM"/>
            <def:Origin Type="Derived"/>
         </ItemDef>
         <ItemDef OID="IT.ADAE.TRTAN" Name="TRTAN" DataType="integer" Length="8"
                  SASFieldName="TRTAN">
            <Description>
               <TranslatedText>Actual Treatment (N)</TranslatedText>
            </Description>
            <CodeListRef CodeListOID="CL.ARMN"/>
            <def:Origin Type="Derived"/>
         </ItemDef>
         <ItemDef OID="IT.ADAE.AGE" Name="AGE" DataType="integer" Length="8" SASFieldName="AGE">
            <Description>
               <TranslatedText>Age</TranslatedText>
            </Description>
            <def:Origin Type="Derived"/>
         </ItemDef>
         <ItemDef OID="IT.ADAE.AGEGR1" Name="AGEGR1" DataType="text" Length="5"
                  SASFieldName="AGEGR1">
            <Description>
               <TranslatedText>Pooled Age Group 1</TranslatedText>
            </Description>
            <CodeListRef CodeListOID="CL.AGEGR1"/>
            <def:Origin Type="Derived"/>
         </ItemDef>
         <ItemDef OID="IT.ADAE.AGEGR1N" Name="AGEGR1N" DataType="integer" Length="8"
                  SASFieldName="AGEGR1N">
            <Description>
               <TranslatedText>Pooled Age Group 1 (N)</TranslatedText>
            </Description>
            <CodeListRef CodeListOID="CL.AGEGR1N"/>
            <def:Origin Type="Derived"/>
         </ItemDef>
         <ItemDef OID="IT.ADAE.RACE" Name="RACE" DataType="text" Length="32" SASFieldName="RACE">
            <Description>
               <TranslatedText>Race</TranslatedText>
            </Description>
            <CodeListRef CodeListOID="CL.RACE"/>
            <def:Origin Type="Derived"/>
         </ItemDef>
         <ItemDef OID="IT.ADAE.RACEN" Name="RACEN" DataType="integer" Length="8"
                  SASFieldName="RACEN">
            <Description>
               <TranslatedText>Race (N)</TranslatedText>
            </Description>
            <CodeListRef CodeListOID="CL.RACEN"/>
            <def:Origin Type="Derived"/>
         </ItemDef>
         <ItemDef OID="IT.ADAE.SEX" Name="SEX" DataType="text" Length="1" SASFieldName="SEX">
            <Description>
               <TranslatedText>Sex</TranslatedText>
            </Description>
            <CodeListRef CodeListOID="CL.SEX"/>
            <def:Origin Type="Derived"/>
         </ItemDef>
         <ItemDef OID="IT.ADAE.SAFFL" Name="SAFFL" DataType="text" Length="1"
                  SASFieldName="SAFFL">
            <Description>
               <TranslatedText>Safety Population Flag</TranslatedText>
            </Description>
            <CodeListRef CodeListOID="CL.YN"/>
            <def:Origin Type="Derived"/>
         </ItemDef>
         <ItemDef OID="IT.ADAE.TRTSDT" Name="TRTSDT" DataType="integer" Length="8"
                  SASFieldName="TRTSDT"
                  def:DisplayFormat="DATE9.">
            <Description>
               <TranslatedText>Date of First Exposure to Treatment</TranslatedText>
            </Description>
            <def:Origin Type="Derived"/>
         </ItemDef>
         <ItemDef OID="IT.ADAE.TRTEDT" Name="TRTEDT" DataType="integer" Length="8"
                  SASFieldName="TRTEDT"
                  def:DisplayFormat="DATE9.">
            <Description>
               <TranslatedText>Date of Last Exposure to Treatment</TranslatedText>
            </Description>
            <def:Origin Type="Derived"/>
         </ItemDef>
         <ItemDef OID="IT.ADAE.ASTDT" Name="ASTDT" DataType="integer" Length="8"
                  SASFieldName="ASTDT"
                  def:DisplayFormat="DATE9.">
            <Description>
               <TranslatedText>Analysis Start Date</TranslatedText>
            </Description>
            <def:Origin Type="Derived"/>
         </ItemDef>
         <ItemDef OID="IT.ADAE.ASTDTF" Name="ASTDTF" DataType="text" Length="1"
                  SASFieldName="ASTDTF">
            <Description>
               <TranslatedText>Analysis Start Date Imputation Flag</TranslatedText>
            </Description>
            <def:Origin Type="Derived"/>
         </ItemDef>
         <ItemDef OID="IT.ADAE.ASTDY" Name="ASTDY" DataType="integer" Length="8"
                  SASFieldName="ASTDY">
            <Description>
               <TranslatedText>Analysis Start Relative Day</TranslatedText>
            </Description>
            <def:Origin Type="Derived"/>
         </ItemDef>
         <ItemDef OID="IT.ADAE.AENDT" Name="AENDT" DataType="integer" Length="8"
                  SASFieldName="AENDT"
                  def:DisplayFormat="DATE9.">
            <Description>
               <TranslatedText>Analysis End Date</TranslatedText>
            </Description>
            <def:Origin Type="Derived"/>
         </ItemDef>
         <ItemDef OID="IT.ADAE.AENDY" Name="AENDY" DataType="integer" Length="8"
                  SASFieldName="AENDY">
            <Description>
               <TranslatedText>Analysis End Relative Day</TranslatedText>
            </Description>
            <def:Origin Type="Derived"/>
         </ItemDef>
         <ItemDef OID="IT.ADAE.ADURN" Name="ADURN" DataType="integer" Length="8"
                  SASFieldName="ADURN">
            <Description>
               <TranslatedText>Analysis Duration (N)</TranslatedText>
            </Description>
            <def:Origin Type="Derived"/>
         </ItemDef>
         <ItemDef OID="IT.ADAE.ADURU" Name="ADURU" DataType="text" Length="3"
                  SASFieldName="ADURU">
            <Description>
               <TranslatedText>Analysis Duration Units</TranslatedText>
            </Description>
            <CodeListRef CodeListOID="CL.ADURU"/>
            <def:Origin Type="Derived"/>
         </ItemDef>
         <ItemDef OID="IT.ADAE.AETERM" Name="AETERM" DataType="text" Length="46"
                  SASFieldName="AETERM">
            <Description>
               <TranslatedText>Reported Term for the Adverse Event</TranslatedText>
            </Description>
            <def:Origin Type="Derived"/>
         </ItemDef>
         <ItemDef OID="IT.ADAE.AELLT" Name="AELLT" DataType="text" Length="46"
                  SASFieldName="AELLT">
            <Description>
               <TranslatedText>Lowest Level Term</TranslatedText>
            </Description>
            <CodeListRef CodeListOID="CL.AEDICT"/>
            <def:Origin Type="Derived"/>
         </ItemDef>
         <ItemDef OID="IT.ADAE.AELLTCD" Name="AELLTCD" DataType="integer" Length="8"
                  SASFieldName="AELLTCD">
            <Description>
               <TranslatedText>Lowest Level Term Code</TranslatedText>
            </Description>
            <def:Origin Type="Derived"/>
         </ItemDef>
         <ItemDef OID="IT.ADAE.AEDECOD" Name="AEDECOD" DataType="text" Length="46"
                  SASFieldName="AEDECOD">
            <Description>
               <TranslatedText>Dictionary-Derived Term</TranslatedText>
            </Description>
            <CodeListRef CodeListOID="CL.AEDICT"/>
            <def:Origin Type="Derived"/>
         </ItemDef>
         <ItemDef OID="IT.ADAE.AEPTCD" Name="AEPTCD" DataType="integer" Length="8"
                  SASFieldName="AEPTCD">
            <Description>
               <TranslatedText>Preferred Term Code</TranslatedText>
            </Description>
            <def:Origin Type="Derived"/>
         </ItemDef>
         <ItemDef OID="IT.ADAE.AEHLT" Name="AEHLT" DataType="text" Length="8"
                  SASFieldName="AEHLT">
            <Description>
               <TranslatedText>High Level Term</TranslatedText>
            </Description>
            <CodeListRef CodeListOID="CL.AEDICT"/>
            <def:Origin Type="Derived"/>
         </ItemDef>
         <ItemDef OID="IT.ADAE.AEHLTCD" Name="AEHLTCD" DataType="integer" Length="8"
                  SASFieldName="AEHLTCD">
            <Description>
               <TranslatedText>High Level Term Code</TranslatedText>
            </Description>
            <def:Origin Type="Derived"/>
         </ItemDef>
         <ItemDef OID="IT.ADAE.AEHLGT" Name="AEHLGT" DataType="text" Length="9"
                  SASFieldName="AEHLGT">
            <Description>
               <TranslatedText>High Level Group Term</TranslatedText>
            </Description>
            <CodeListRef CodeListOID="CL.AEDICT"/>
            <def:Origin Type="Derived"/>
         </ItemDef>
         <ItemDef OID="IT.ADAE.AEHLGTCD" Name="AEHLGTCD" DataType="integer" Length="8"
                  SASFieldName="AEHLGTCD">
            <Description>
               <TranslatedText>High Level Group Term Code</TranslatedText>
            </Description>
            <def:Origin Type="Derived"/>
         </ItemDef>
         <ItemDef OID="IT.ADAE.AEBODSYS" Name="AEBODSYS" DataType="text" Length="67"
                  SASFieldName="AEBODSYS">
            <Description>
               <TranslatedText>Body System or Organ Class</TranslatedText>
            </Description>
            <CodeListRef CodeListOID="CL.AEDICT"/>
            <def:Origin Type="Derived"/>
         </ItemDef>
         <ItemDef OID="IT.ADAE.AESOC" Name="AESOC" DataType="text" Length="67"
                  SASFieldName="AESOC">
            <Description>
               <TranslatedText>Primary System Organ Class</TranslatedText>
            </Description>
            <CodeListRef CodeListOID="CL.AEDICT"/>
            <def:Origin Type="Derived"/>
         </ItemDef>
         <ItemDef OID="IT.ADAE.AESOCCD" Name="AESOCCD" DataType="integer" Length="8"
                  SASFieldName="AESOCCD">
            <Description>
               <TranslatedText>Primary System Organ Class Code</TranslatedText>
            </Description>
            <def:Origin Type="Derived"/>
         </ItemDef>
         <ItemDef OID="IT.ADAE.AESEV" Name="AESEV" DataType="text" Length="8"
                  SASFieldName="AESEV">
            <Description>
               <TranslatedText>Severity/Intensity</TranslatedText>
            </Description>
            <def:Origin Type="Derived"/>
         </ItemDef>
         <ItemDef OID="IT.ADAE.AESER" Name="AESER" DataType="text" Length="1"
                  SASFieldName="AESER">
            <Description>
               <TranslatedText>Serious Event</TranslatedText>
            </Description>
            <CodeListRef CodeListOID="CL.YN"/>
            <def:Origin Type="Derived"/>
         </ItemDef>
         <ItemDef OID="IT.ADAE.AESCAN" Name="AESCAN" DataType="text" Length="1"
                  SASFieldName="AESCAN">
            <Description>
               <TranslatedText>Involves Cancer</TranslatedText>
            </Description>
            <CodeListRef CodeListOID="CL.YN"/>
            <def:Origin Type="Derived"/>
         </ItemDef>
         <ItemDef OID="IT.ADAE.AESCONG" Name="AESCONG" DataType="text" Length="1"
                  SASFieldName="AESCONG">
            <Description>
               <TranslatedText>Congenital Anomaly or Birth Defect</TranslatedText>
            </Description>
            <CodeListRef CodeListOID="CL.YN"/>
            <def:Origin Type="Derived"/>
         </ItemDef>
         <ItemDef OID="IT.ADAE.AESDISAB" Name="AESDISAB" DataType="text" Length="1"
                  SASFieldName="AESDISAB">
            <Description>
               <TranslatedText>Persist or Signif Disability/Incapacity</TranslatedText>
            </Description>
            <CodeListRef CodeListOID="CL.YN"/>
            <def:Origin Type="Derived"/>
         </ItemDef>
         <ItemDef OID="IT.ADAE.AESDTH" Name="AESDTH" DataType="text" Length="1"
                  SASFieldName="AESDTH">
            <Description>
               <TranslatedText>Results in Death</TranslatedText>
            </Description>
            <CodeListRef CodeListOID="CL.YN"/>
            <def:Origin Type="Derived"/>
         </ItemDef>
         <ItemDef OID="IT.ADAE.AESHOSP" Name="AESHOSP" DataType="text" Length="1"
                  SASFieldName="AESHOSP">
            <Description>
               <TranslatedText>Requires or Prolongs Hospitalization</TranslatedText>
            </Description>
            <CodeListRef CodeListOID="CL.YN"/>
            <def:Origin Type="Derived"/>
         </ItemDef>
         <ItemDef OID="IT.ADAE.AESLIFE" Name="AESLIFE" DataType="text" Length="1"
                  SASFieldName="AESLIFE">
            <Description>
               <TranslatedText>Is Life Threatening</TranslatedText>
            </Description>
            <CodeListRef CodeListOID="CL.YN"/>
            <def:Origin Type="Derived"/>
         </ItemDef>
         <ItemDef OID="IT.ADAE.AESOD" Name="AESOD" DataType="text" Length="1"
                  SASFieldName="AESOD">
            <Description>
               <TranslatedText>Occurred with Overdose</TranslatedText>
            </Description>
            <CodeListRef CodeListOID="CL.YN"/>
            <def:Origin Type="Derived"/>
         </ItemDef>
         <ItemDef OID="IT.ADAE.AEREL" Name="AEREL" DataType="text" Length="8"
                  SASFieldName="AEREL">
            <Description>
               <TranslatedText>Causality</TranslatedText>
            </Description>
            <CodeListRef CodeListOID="CL.AECAUS"/>
            <def:Origin Type="Derived"/>
         </ItemDef>
         <ItemDef OID="IT.ADAE.AEACN" Name="AEACN" DataType="text" Length="1"
                  SASFieldName="AEACN">
            <Description>
               <TranslatedText>Action Taken with Study Treatment</TranslatedText>
            </Description>
            <def:Origin Type="Derived"/>
         </ItemDef>
         <ItemDef OID="IT.ADAE.AEOUT" Name="AEOUT" DataType="text" Length="26"
                  SASFieldName="AEOUT">
            <Description>
               <TranslatedText>Outcome of Adverse Event</TranslatedText>
            </Description>
            <CodeListRef CodeListOID="CL.OUT"/>
            <def:Origin Type="Derived"/>
         </ItemDef>
         <ItemDef OID="IT.ADAE.AESEQ" Name="AESEQ" DataType="integer" Length="8"
                  SASFieldName="AESEQ">
            <Description>
               <TranslatedText>Sequence Number</TranslatedText>
            </Description>
            <def:Origin Type="Derived"/>
         </ItemDef>
         <ItemDef OID="IT.ADAE.TRTEMFL" Name="TRTEMFL" DataType="text" Length="1"
                  SASFieldName="TRTEMFL">
            <Description>
               <TranslatedText>Treatment Emergent Analysis Flag</TranslatedText>
            </Description>
            <def:Origin Type="Derived"/>
         </ItemDef>
         <ItemDef OID="IT.ADAE.AOCCFL" Name="AOCCFL" DataType="text" Length="1"
                  SASFieldName="AOCCFL">
            <Description>
               <TranslatedText>1st Occurrence within Subject Flag</TranslatedText>
            </Description>
            <def:Origin Type="Derived"/>
         </ItemDef>
         <ItemDef OID="IT.ADAE.AOCCSFL" Name="AOCCSFL" DataType="text" Length="1"
                  SASFieldName="AOCCSFL">
            <Description>
               <TranslatedText>1st Occurrence of SOC Flag</TranslatedText>
            </Description>
            <def:Origin Type="Derived"/>
         </ItemDef>
         <ItemDef OID="IT.ADAE.AOCCPFL" Name="AOCCPFL" DataType="text" Length="1"
                  SASFieldName="AOCCPFL">
            <Description>
               <TranslatedText>1st Occurrence of Preferred Term Flag</TranslatedText>
            </Description>
            <def:Origin Type="Derived"/>
         </ItemDef>
         <ItemDef OID="IT.ADAE.AOCC02FL" Name="AOCC02FL" DataType="text" Length="1"
                  SASFieldName="AOCC02FL">
            <Description>
               <TranslatedText>1st Occurrence 02 Flag for Serious</TranslatedText>
            </Description>
            <def:Origin Type="Derived"/>
         </ItemDef>
         <ItemDef OID="IT.ADAE.AOCC03FL" Name="AOCC03FL" DataType="text" Length="1"
                  SASFieldName="AOCC03FL">
            <Description>
               <TranslatedText>1st Occurrence 03 Flag for Serious SOC</TranslatedText>
            </Description>
            <def:Origin Type="Derived"/>
         </ItemDef>
         <ItemDef OID="IT.ADAE.AOCC04FL" Name="AOCC04FL" DataType="text" Length="1"
                  SASFieldName="AOCC04FL">
            <Description>
               <TranslatedText>1st Occurrence 04 Flag for Serious PT</TranslatedText>
            </Description>
            <def:Origin Type="Derived"/>
         </ItemDef>
         <ItemDef OID="IT.ADAE.CQ01NAM" Name="CQ01NAM" DataType="text" Length="19"
                  SASFieldName="CQ01NAM">
            <Description>
               <TranslatedText>Customized Query 01 Name</TranslatedText>
            </Description>
            <def:Origin Type="Derived"/>
         </ItemDef>
         <ItemDef OID="IT.ADAE.AOCC01FL" Name="AOCC01FL" DataType="text" Length="1"
                  SASFieldName="AOCC01FL">
            <Description>
               <TranslatedText>1st Occurrence 01 Flag for CQ01</TranslatedText>
            </Description>
            <def:Origin Type="Derived"/>
         </ItemDef>
         <ItemDef OID="IT.ADADAS.AVAL.ADADAS.PARAMCD.EQ.ACITM01"
                  Name="AVAL.ADADAS.PARAMCD.EQ.ACITM01"
                  DataType="float"
                  Length="16"
                  SignificantDigits="13"
                  SASFieldName="AVAL">
            <Description>
               <TranslatedText>Word Recall Task</TranslatedText>
            </Description>
            <def:Origin Type="Derived"/>
         </ItemDef>
         <ItemDef OID="IT.ADADAS.AVAL.ADADAS.PARAMCD.EQ.ACITM02"
                  Name="AVAL.ADADAS.PARAMCD.EQ.ACITM02"
                  DataType="float"
                  Length="16"
                  SignificantDigits="13"
                  SASFieldName="AVAL">
            <Description>
               <TranslatedText>Naming Objects And Fingers (Refer To 5 C</TranslatedText>
            </Description>
            <def:Origin Type="Derived"/>
         </ItemDef>
         <ItemDef OID="IT.ADADAS.AVAL.ADADAS.PARAMCD.EQ.ACITM03"
                  Name="AVAL.ADADAS.PARAMCD.EQ.ACITM03"
                  DataType="float"
                  Length="16"
                  SignificantDigits="13"
                  SASFieldName="AVAL">
            <Description>
               <TranslatedText>Delayed Word Recall</TranslatedText>
            </Description>
            <def:Origin Type="Derived"/>
         </ItemDef>
         <ItemDef OID="IT.ADADAS.AVAL.ADADAS.PARAMCD.EQ.ACITM04"
                  Name="AVAL.ADADAS.PARAMCD.EQ.ACITM04"
                  DataType="float"
                  Length="16"
                  SignificantDigits="13"
                  SASFieldName="AVAL">
            <Description>
               <TranslatedText>Commands</TranslatedText>
            </Description>
            <def:Origin Type="Derived"/>
         </ItemDef>
         <ItemDef OID="IT.ADADAS.AVAL.ADADAS.PARAMCD.EQ.ACITM05"
                  Name="AVAL.ADADAS.PARAMCD.EQ.ACITM05"
                  DataType="float"
                  Length="16"
                  SignificantDigits="13"
                  SASFieldName="AVAL">
            <Description>
               <TranslatedText>Constructional Praxis</TranslatedText>
            </Description>
            <def:Origin Type="Derived"/>
         </ItemDef>
         <ItemDef OID="IT.ADADAS.AVAL.ADADAS.PARAMCD.EQ.ACITM06"
                  Name="AVAL.ADADAS.PARAMCD.EQ.ACITM06"
                  DataType="float"
                  Length="16"
                  SignificantDigits="13"
                  SASFieldName="AVAL">
            <Description>
               <TranslatedText>Ideational Praxis</TranslatedText>
            </Description>
            <def:Origin Type="Derived"/>
         </ItemDef>
         <ItemDef OID="IT.ADADAS.AVAL.ADADAS.PARAMCD.EQ.ACITM07"
                  Name="AVAL.ADADAS.PARAMCD.EQ.ACITM07"
                  DataType="float"
                  Length="16"
                  SignificantDigits="13"
                  SASFieldName="AVAL">
            <Description>
               <TranslatedText>Orientation</TranslatedText>
            </Description>
            <def:Origin Type="Derived"/>
         </ItemDef>
         <ItemDef OID="IT.ADADAS.AVAL.ADADAS.PARAMCD.EQ.ACITM08"
                  Name="AVAL.ADADAS.PARAMCD.EQ.ACITM08"
                  DataType="float"
                  Length="16"
                  SignificantDigits="13"
                  SASFieldName="AVAL">
            <Description>
               <TranslatedText>Word Recognition</TranslatedText>
            </Description>
            <def:Origin Type="Derived"/>
         </ItemDef>
         <ItemDef OID="IT.ADADAS.AVAL.ADADAS.PARAMCD.EQ.ACITM09"
                  Name="AVAL.ADADAS.PARAMCD.EQ.ACITM09"
                  DataType="float"
                  Length="16"
                  SignificantDigits="13"
                  SASFieldName="AVAL">
            <Description>
               <TranslatedText>Attention/Visual Search Task</TranslatedText>
            </Description>
            <def:Origin Type="Derived"/>
         </ItemDef>
         <ItemDef OID="IT.ADADAS.AVAL.ADADAS.PARAMCD.EQ.ACITM10"
                  Name="AVAL.ADADAS.PARAMCD.EQ.ACITM10"
                  DataType="float"
                  Length="16"
                  SignificantDigits="13"
                  SASFieldName="AVAL">
            <Description>
               <TranslatedText>Maze Solution</TranslatedText>
            </Description>
            <def:Origin Type="Derived"/>
         </ItemDef>
         <ItemDef OID="IT.ADADAS.AVAL.ADADAS.PARAMCD.EQ.ACITM11"
                  Name="AVAL.ADADAS.PARAMCD.EQ.ACITM11"
                  DataType="float"
                  Length="16"
                  SignificantDigits="13"
                  SASFieldName="AVAL">
            <Description>
               <TranslatedText>Spoken Language Ability</TranslatedText>
            </Description>
            <def:Origin Type="Derived"/>
         </ItemDef>
         <ItemDef OID="IT.ADADAS.AVAL.ADADAS.PARAMCD.EQ.ACITM12"
                  Name="AVAL.ADADAS.PARAMCD.EQ.ACITM12"
                  DataType="float"
                  Length="16"
                  SignificantDigits="13"
                  SASFieldName="AVAL">
            <Description>
               <TranslatedText>Comprehension Of Spoken Language</TranslatedText>
            </Description>
            <def:Origin Type="Derived"/>
         </ItemDef>
         <ItemDef OID="IT.ADADAS.AVAL.ADADAS.PARAMCD.EQ.ACITM13"
                  Name="AVAL.ADADAS.PARAMCD.EQ.ACITM13"
                  DataType="float"
                  Length="16"
                  SignificantDigits="13"
                  SASFieldName="AVAL">
            <Description>
               <TranslatedText>Word Finding Difficulty In Spontaneous S</TranslatedText>
            </Description>
            <def:Origin Type="Derived"/>
         </ItemDef>
         <ItemDef OID="IT.ADADAS.AVAL.ADADAS.PARAMCD.EQ.ACITM14"
                  Name="AVAL.ADADAS.PARAMCD.EQ.ACITM14"
                  DataType="float"
                  Length="16"
                  SignificantDigits="13"
                  SASFieldName="AVAL">
            <Description>
               <TranslatedText>Recall Of Test Instructions</TranslatedText>
            </Description>
            <def:Origin Type="Derived"/>
         </ItemDef>
         <ItemDef OID="IT.ADADAS.AVAL.ADADAS.PARAMCD.EQ.ACTOT"
                  Name="AVAL.ADADAS.PARAMCD.EQ.ACTOT"
                  DataType="float"
                  Length="16"
                  SignificantDigits="13"
                  SASFieldName="AVAL">
            <Description>
               <TranslatedText>Adas-Cog(11) Subscore</TranslatedText>
            </Description>
            <def:Origin Type="Derived"/>
         </ItemDef>
         <CodeList OID="CL.ADLBCAT" Name="ADLBCAT" DataType="text">
            <CodeListItem CodedValue="CHEM" OrderNumber="1">
               <Decode>
                  <TranslatedText>Chemistry</TranslatedText>
               </Decode>
            </CodeListItem>
            <CodeListItem CodedValue="HEM" OrderNumber="2">
               <Decode>
                  <TranslatedText>Hematology</TranslatedText>
               </Decode>
            </CodeListItem>
            <CodeListItem CodedValue="HYLAW" OrderNumber="3">
               <Decode>
                  <TranslatedText>Hy's Law</TranslatedText>
               </Decode>
            </CodeListItem>
         </CodeList>
         <CodeList OID="CL.ADURU" Name="ADURU" DataType="text">
            <CodeListItem CodedValue="DAYS" OrderNumber="4">
               <Decode>
                  <TranslatedText>DAYS</TranslatedText>
               </Decode>
               <Alias Name="C25301" Context="nci:ExtCodeID"/>
            </CodeListItem>
            <Alias Name="C71620" Context="nci:ExtCodeID"/>
         </CodeList>
         <CodeList OID="CL.AECAUS" Name="AECAUS" DataType="text">
            <CodeListItem CodedValue="NONE" OrderNumber="1">
               <Decode>
                  <TranslatedText>NONE</TranslatedText>
               </Decode>
            </CodeListItem>
            <CodeListItem CodedValue="POSSIBLE" OrderNumber="2">
               <Decode>
                  <TranslatedText>POSSIBLE</TranslatedText>
               </Decode>
            </CodeListItem>
            <CodeListItem CodedValue="PROBABLE" OrderNumber="3">
               <Decode>
                  <TranslatedText>PROBABLE</TranslatedText>
               </Decode>
            </CodeListItem>
            <CodeListItem CodedValue="REMOTE" OrderNumber="4">
               <Decode>
                  <TranslatedText>REMOTE</TranslatedText>
               </Decode>
            </CodeListItem>
         </CodeList>
         <CodeList OID="CL.AGEGR1" Name="AGEGR1" DataType="text">
            <CodeListItem CodedValue="&lt;65" OrderNumber="1">
               <Decode>
                  <TranslatedText>&lt;65</TranslatedText>
               </Decode>
            </CodeListItem>
            <CodeListItem CodedValue="65-80" OrderNumber="2">
               <Decode>
                  <TranslatedText>65-80</TranslatedText>
               </Decode>
            </CodeListItem>
            <CodeListItem CodedValue="&gt;80" OrderNumber="3">
               <Decode>
                  <TranslatedText>&gt;80</TranslatedText>
               </Decode>
            </CodeListItem>
         </CodeList>
         <CodeList OID="CL.AGEGR1N" Name="AGEGR1N" DataType="integer">
            <CodeListItem CodedValue="1" OrderNumber="1">
               <Decode>
                  <TranslatedText>&lt;65</TranslatedText>
               </Decode>
            </CodeListItem>
            <CodeListItem CodedValue="2" OrderNumber="2">
               <Decode>
                  <TranslatedText>65-80</TranslatedText>
               </Decode>
            </CodeListItem>
            <CodeListItem CodedValue="3" OrderNumber="3">
               <Decode>
                  <TranslatedText>&gt;80</TranslatedText>
               </Decode>
            </CodeListItem>
         </CodeList>
         <CodeList OID="CL.AGEU" Name="AGEU" DataType="text">
            <EnumeratedItem CodedValue="YEARS" OrderNumber="1">
               <Alias Name="C29848" Context="nci:ExtCodeID"/>
            </EnumeratedItem>
            <Alias Name="C66781" Context="nci:ExtCodeID"/>
         </CodeList>
         <CodeList OID="CL.ARM" Name="ARM" DataType="text">
            <CodeListItem CodedValue="Placebo" OrderNumber="1">
               <Decode>
                  <TranslatedText>Placebo</TranslatedText>
               </Decode>
            </CodeListItem>
            <CodeListItem CodedValue="Xanomeline Low Dose" OrderNumber="2">
               <Decode>
                  <TranslatedText>Xanomeline Low Dose</TranslatedText>
               </Decode>
            </CodeListItem>
            <CodeListItem CodedValue="Xanomeline High Dose" OrderNumber="3">
               <Decode>
                  <TranslatedText>Xanomeline High Dose</TranslatedText>
               </Decode>
            </CodeListItem>
         </CodeList>
         <CodeList OID="CL.ARMN" Name="ARMN" DataType="integer">
            <CodeListItem CodedValue="0" OrderNumber="1">
               <Decode>
                  <TranslatedText>Placebo</TranslatedText>
               </Decode>
            </CodeListItem>
            <CodeListItem CodedValue="54" OrderNumber="2">
               <Decode>
                  <TranslatedText>Xanomeline Low Dose</TranslatedText>
               </Decode>
            </CodeListItem>
            <CodeListItem CodedValue="81" OrderNumber="3">
               <Decode>
                  <TranslatedText>Xanomeline High Dose</TranslatedText>
               </Decode>
            </CodeListItem>
         </CodeList>
         <CodeList OID="CL.AVISIT" Name="AVISIT" DataType="text">
            <CodeListItem CodedValue="Baseline" OrderNumber="1">
               <Decode>
                  <TranslatedText>Baseline</TranslatedText>
               </Decode>
            </CodeListItem>
            <CodeListItem CodedValue="Week 2" OrderNumber="2">
               <Decode>
                  <TranslatedText>Week 2</TranslatedText>
               </Decode>
            </CodeListItem>
            <CodeListItem CodedValue="Week 4" OrderNumber="3">
               <Decode>
                  <TranslatedText>Week 4</TranslatedText>
               </Decode>
            </CodeListItem>
            <CodeListItem CodedValue="Week 6" OrderNumber="4">
               <Decode>
                  <TranslatedText>Week 6</TranslatedText>
               </Decode>
            </CodeListItem>
            <CodeListItem CodedValue="Week 8" OrderNumber="5">
               <Decode>
                  <TranslatedText>Week 8</TranslatedText>
               </Decode>
            </CodeListItem>
            <CodeListItem CodedValue="Week 10" OrderNumber="6">
               <Decode>
                  <TranslatedText>Week 10</TranslatedText>
               </Decode>
            </CodeListItem>
            <CodeListItem CodedValue="Week 12" OrderNumber="7">
               <Decode>
                  <TranslatedText>Week 12</TranslatedText>
               </Decode>
            </CodeListItem>
            <CodeListItem CodedValue="Week 14" OrderNumber="8">
               <Decode>
                  <TranslatedText>Week 14</TranslatedText>
               </Decode>
            </CodeListItem>
            <CodeListItem CodedValue="Week 16" OrderNumber="9">
               <Decode>
                  <TranslatedText>Week 16</TranslatedText>
               </Decode>
            </CodeListItem>
            <CodeListItem CodedValue="Week 18" OrderNumber="10">
               <Decode>
                  <TranslatedText>Week 18</TranslatedText>
               </Decode>
            </CodeListItem>
            <CodeListItem CodedValue="Week 20" OrderNumber="11">
               <Decode>
                  <TranslatedText>Week 20</TranslatedText>
               </Decode>
            </CodeListItem>
            <CodeListItem CodedValue="Week 22" OrderNumber="12">
               <Decode>
                  <TranslatedText>Week 22</TranslatedText>
               </Decode>
            </CodeListItem>
            <CodeListItem CodedValue="Week 24" OrderNumber="13">
               <Decode>
                  <TranslatedText>Week 24</TranslatedText>
               </Decode>
            </CodeListItem>
            <CodeListItem CodedValue="Week 26" OrderNumber="14">
               <Decode>
                  <TranslatedText>Week 26</TranslatedText>
               </Decode>
            </CodeListItem>
            <CodeListItem CodedValue="Weeks 4-24" OrderNumber="15">
               <Decode>
                  <TranslatedText>Weeks 4-24</TranslatedText>
               </Decode>
            </CodeListItem>
            <CodeListItem CodedValue="End of Treatment" OrderNumber="16">
               <Decode>
                  <TranslatedText>End of Treatment</TranslatedText>
               </Decode>
            </CodeListItem>
         </CodeList>
         <CodeList OID="CL.AVISITN" Name="AVISITN" DataType="integer">
            <CodeListItem CodedValue="0" OrderNumber="1">
               <Decode>
                  <TranslatedText>Baseline</TranslatedText>
               </Decode>
            </CodeListItem>
            <CodeListItem CodedValue="2" OrderNumber="2">
               <Decode>
                  <TranslatedText>Week 2</TranslatedText>
               </Decode>
            </CodeListItem>
            <CodeListItem CodedValue="4" OrderNumber="3">
               <Decode>
                  <TranslatedText>Week 4</TranslatedText>
               </Decode>
            </CodeListItem>
            <CodeListItem CodedValue="6" OrderNumber="4">
               <Decode>
                  <TranslatedText>Week 6</TranslatedText>
               </Decode>
            </CodeListItem>
            <CodeListItem CodedValue="8" OrderNumber="5">
               <Decode>
                  <TranslatedText>Week 8</TranslatedText>
               </Decode>
            </CodeListItem>
            <CodeListItem CodedValue="10" OrderNumber="6">
               <Decode>
                  <TranslatedText>Week 10</TranslatedText>
               </Decode>
            </CodeListItem>
            <CodeListItem CodedValue="12" OrderNumber="7">
               <Decode>
                  <TranslatedText>Week 12</TranslatedText>
               </Decode>
            </CodeListItem>
            <CodeListItem CodedValue="14" OrderNumber="8">
               <Decode>
                  <TranslatedText>Week 14</TranslatedText>
               </Decode>
            </CodeListItem>
            <CodeListItem CodedValue="16" OrderNumber="9">
               <Decode>
                  <TranslatedText>Week 16</TranslatedText>
               </Decode>
            </CodeListItem>
            <CodeListItem CodedValue="18" OrderNumber="10">
               <Decode>
                  <TranslatedText>Week 18</TranslatedText>
               </Decode>
            </CodeListItem>
            <CodeListItem CodedValue="20" OrderNumber="11">
               <Decode>
                  <TranslatedText>Week 20</TranslatedText>
               </Decode>
            </CodeListItem>
            <CodeListItem CodedValue="22" OrderNumber="12">
               <Decode>
                  <TranslatedText>Week 22</TranslatedText>
               </Decode>
            </CodeListItem>
            <CodeListItem CodedValue="24" OrderNumber="13">
               <Decode>
                  <TranslatedText>Week 24</TranslatedText>
               </Decode>
            </CodeListItem>
            <CodeListItem CodedValue="26" OrderNumber="14">
               <Decode>
                  <TranslatedText>Week 26</TranslatedText>
               </Decode>
            </CodeListItem>
            <CodeListItem CodedValue="98" OrderNumber="15">
               <Decode>
                  <TranslatedText>Weeks 4-24</TranslatedText>
               </Decode>
            </CodeListItem>
            <CodeListItem CodedValue="99" OrderNumber="16">
               <Decode>
                  <TranslatedText>End of Treatment</TranslatedText>
               </Decode>
            </CodeListItem>
         </CodeList>
         <CodeList OID="CL.AWU" Name="AWU" DataType="text">
            <CodeListItem CodedValue="DAYS" OrderNumber="1">
               <Decode>
                  <TranslatedText>DAYS</TranslatedText>
               </Decode>
            </CodeListItem>
         </CodeList>
         <CodeList OID="CL.BMICAT" Name="BMICAT" DataType="text">
            <CodeListItem CodedValue="&lt;25" OrderNumber="1">
               <Decode>
                  <TranslatedText>Normal</TranslatedText>
               </Decode>
            </CodeListItem>
            <CodeListItem CodedValue="25-&lt;30" OrderNumber="2">
               <Decode>
                  <TranslatedText>Overweight</TranslatedText>
               </Decode>
            </CodeListItem>
            <CodeListItem CodedValue="&gt;=30" OrderNumber="3">
               <Decode>
                  <TranslatedText>Obese</TranslatedText>
               </Decode>
            </CodeListItem>
         </CodeList>
         <CodeList OID="CL.CENSOR" Name="CENSOR" DataType="integer">
            <CodeListItem CodedValue="0" OrderNumber="1">
               <Decode>
                  <TranslatedText>Event</TranslatedText>
               </Decode>
            </CodeListItem>
            <CodeListItem CodedValue="1" OrderNumber="2">
               <Decode>
                  <TranslatedText>Censored</TranslatedText>
               </Decode>
            </CodeListItem>
         </CodeList>
         <CodeList OID="CL.DISCCD" Name="DISCCD" DataType="text">
            <CodeListItem CodedValue="COMPLETED" OrderNumber="1">
               <Decode>
                  <TranslatedText>COMPLETED</TranslatedText>
               </Decode>
            </CodeListItem>
            <CodeListItem CodedValue="ADVERSE EVENT" OrderNumber="2">
               <Decode>
                  <TranslatedText>ADVERSE EVENT</TranslatedText>
               </Decode>
            </CodeListItem>
            <CodeListItem CodedValue="DEATH" OrderNumber="3">
               <Decode>
                  <TranslatedText>DEATH</TranslatedText>
               </Decode>
            </CodeListItem>
            <CodeListItem CodedValue="LACK OF EFFICACY" OrderNumber="4">
               <Decode>
                  <TranslatedText>LACK OF EFFICACY</TranslatedText>
               </Decode>
            </CodeListItem>
            <CodeListItem CodedValue="LOST TO FOLLOW-UP" OrderNumber="5">
               <Decode>
                  <TranslatedText>LOST TO FOLLOW-UP</TranslatedText>
               </Decode>
            </CodeListItem>
            <CodeListItem CodedValue="WITHDRAWAL BY SUBJECT" OrderNumber="6">
               <Decode>
                  <TranslatedText>WITHDRAWAL BY SUBJECT</TranslatedText>
               </Decode>
            </CodeListItem>
            <CodeListItem CodedValue="STUDY TERMINATED BY SPONSOR" OrderNumber="8">
               <Decode>
                  <TranslatedText>STUDY TERMINATED BY SPONSOR</TranslatedText>
               </Decode>
            </CodeListItem>
            <CodeListItem CodedValue="PHYSICIAN DECISION" OrderNumber="9">
               <Decode>
                  <TranslatedText>PHYSICIAN DECISION</TranslatedText>
               </Decode>
            </CodeListItem>
            <CodeListItem CodedValue="PROTOCOL VIOLATION" OrderNumber="10">
               <Decode>
                  <TranslatedText>PROTOCOL VIOLATION</TranslatedText>
               </Decode>
            </CodeListItem>
         </CodeList>
         <CodeList OID="CL.DISCREAS" Name="DISCREAS" DataType="text">
            <CodeListItem CodedValue="Completed" OrderNumber="1">
               <Decode>
                  <TranslatedText>Completed</TranslatedText>
               </Decode>
            </CodeListItem>
            <CodeListItem CodedValue="Adverse Event" OrderNumber="2">
               <Decode>
                  <TranslatedText>Adverse Event</TranslatedText>
               </Decode>
            </CodeListItem>
            <CodeListItem CodedValue="Death" OrderNumber="3">
               <Decode>
                  <TranslatedText>Death</TranslatedText>
               </Decode>
            </CodeListItem>
            <CodeListItem CodedValue="I/E Not Met" OrderNumber="4">
               <Decode>
                  <TranslatedText>I/E Not Met</TranslatedText>
               </Decode>
            </CodeListItem>
            <CodeListItem CodedValue="Lack of Efficacy" OrderNumber="5">
               <Decode>
                  <TranslatedText>Lack of Efficacy</TranslatedText>
               </Decode>
            </CodeListItem>
            <CodeListItem CodedValue="Lost to Follow-up" OrderNumber="6">
               <Decode>
                  <TranslatedText>Lost to Follow-up</TranslatedText>
               </Decode>
            </CodeListItem>
            <CodeListItem CodedValue="Physician Decision" OrderNumber="7">
               <Decode>
                  <TranslatedText>Physician Decision</TranslatedText>
               </Decode>
            </CodeListItem>
            <CodeListItem CodedValue="Protocol Violation" OrderNumber="8">
               <Decode>
                  <TranslatedText>Protocol Violation</TranslatedText>
               </Decode>
            </CodeListItem>
            <CodeListItem CodedValue="Sponsor Decision" OrderNumber="9">
               <Decode>
                  <TranslatedText>Sponsor Decision</TranslatedText>
               </Decode>
            </CodeListItem>
            <CodeListItem CodedValue="Withdrew Consent" OrderNumber="10">
               <Decode>
                  <TranslatedText>Withdrew Consent</TranslatedText>
               </Decode>
            </CodeListItem>
         </CodeList>
         <CodeList OID="CL.DTYPE" Name="DTYPE" DataType="text">
            <CodeListItem CodedValue="LOCF" OrderNumber="1">
               <Decode>
                  <TranslatedText>Last Observation Carried Forward</TranslatedText>
               </Decode>
               <Alias Name="C81198" Context="nci:ExtCodeID"/>
            </CodeListItem>
            <CodeListItem CodedValue="AVERAGE" OrderNumber="2">
               <Decode>
                  <TranslatedText>Average</TranslatedText>
               </Decode>
               <Alias Name="C81209" Context="nci:ExtCodeID"/>
            </CodeListItem>
            <Alias Name="C81224" Context="nci:ExtCodeID"/>
         </CodeList>
         <CodeList OID="CL.DURDISC" Name="DURDISC" DataType="text">
            <CodeListItem CodedValue="&lt;12" OrderNumber="1">
               <Decode>
                  <TranslatedText>&lt;12</TranslatedText>
               </Decode>
            </CodeListItem>
            <CodeListItem CodedValue="&gt;=12" OrderNumber="2">
               <Decode>
                  <TranslatedText>&gt;=12</TranslatedText>
               </Decode>
            </CodeListItem>
         </CodeList>
         <CodeList OID="CL.ETHNIC" Name="ETHNIC" DataType="text">
            <CodeListItem CodedValue="HISPANIC OR LATINO" OrderNumber="1">
               <Decode>
                  <TranslatedText>1</TranslatedText>
               </Decode>
               <Alias Name="C17459" Context="nci:ExtCodeID"/>
            </CodeListItem>
            <CodeListItem CodedValue="NOT HISPANIC OR LATINO" OrderNumber="2">
               <Decode>
                  <TranslatedText>2</TranslatedText>
               </Decode>
               <Alias Name="C41222" Context="nci:ExtCodeID"/>
            </CodeListItem>
            <CodeListItem CodedValue="NOT REPORTED" OrderNumber="3">
               <Decode>
                  <TranslatedText>3</TranslatedText>
               </Decode>
               <Alias Name="C43234" Context="nci:ExtCodeID"/>
            </CodeListItem>
            <CodeListItem CodedValue="UNKNOWN" OrderNumber="4">
               <Decode>
                  <TranslatedText>4</TranslatedText>
               </Decode>
               <Alias Name="C17998" Context="nci:ExtCodeID"/>
            </CodeListItem>
            <Alias Name="C66790" Context="nci:ExtCodeID"/>
         </CodeList>
         <CodeList OID="CL.LBNRIND" Name="LBNRIND" DataType="text">
            <CodeListItem CodedValue="LOW" OrderNumber="1">
               <Decode>
                  <TranslatedText>LOW</TranslatedText>
               </Decode>
            </CodeListItem>
            <CodeListItem CodedValue="NORMAL" OrderNumber="2">
               <Decode>
                  <TranslatedText>NORMAL</TranslatedText>
               </Decode>
            </CodeListItem>
            <CodeListItem CodedValue="HIGH" OrderNumber="3">
               <Decode>
                  <TranslatedText>HIGH</TranslatedText>
               </Decode>
            </CodeListItem>
            <CodeListItem CodedValue="ABNORMAL" OrderNumber="4">
               <Decode>
                  <TranslatedText>HIGH</TranslatedText>
               </Decode>
            </CodeListItem>
         </CodeList>
         <CodeList OID="CL.LNH" Name="LNH" DataType="text">
            <CodeListItem CodedValue="L" OrderNumber="1">
               <Decode>
                  <TranslatedText>Low</TranslatedText>
               </Decode>
            </CodeListItem>
            <CodeListItem CodedValue="N" OrderNumber="2">
               <Decode>
                  <TranslatedText>Normal</TranslatedText>
               </Decode>
            </CodeListItem>
            <CodeListItem CodedValue="H" OrderNumber="3">
               <Decode>
                  <TranslatedText>High</TranslatedText>
               </Decode>
            </CodeListItem>
         </CodeList>
         <CodeList OID="CL.OUT" Name="OUT" DataType="text">
            <CodeListItem CodedValue="RECOVERED/RESOLVED" OrderNumber="1">
               <Decode>
                  <TranslatedText>RECOVERED/RESOLVED</TranslatedText>
               </Decode>
               <Alias Name="C49498" Context="nci:ExtCodeID"/>
            </CodeListItem>
            <CodeListItem CodedValue="NOT RECOVERED/NOT RESOLVED" OrderNumber="2">
               <Decode>
                  <TranslatedText>NOT RECOVERED/NOT RESOLVED</TranslatedText>
               </Decode>
               <Alias Name="C49494" Context="nci:ExtCodeID"/>
            </CodeListItem>
            <CodeListItem CodedValue="FATAL" OrderNumber="3">
               <Decode>
                  <TranslatedText>FATAL</TranslatedText>
               </Decode>
               <Alias Name="C48275" Context="nci:ExtCodeID"/>
            </CodeListItem>
            <Alias Name="C66768" Context="nci:ExtCodeID"/>
         </CodeList>
         <CodeList OID="CL.PARAM_ADLBC" Name="PARAM_ADLBC" DataType="text">
            <CodeListItem CodedValue="Albumin (g/L)" OrderNumber="1">
               <Decode>
                  <TranslatedText>Albumin (g/L)</TranslatedText>
               </Decode>
            </CodeListItem>
            <CodeListItem CodedValue="Alkaline Phosphatase (U/L)" OrderNumber="2">
               <Decode>
                  <TranslatedText>Alkaline Phosphatase (U/L)</TranslatedText>
               </Decode>
            </CodeListItem>
            <CodeListItem CodedValue="Alanine Aminotransferase (U/L)" OrderNumber="3">
               <Decode>
                  <TranslatedText>Alanine Aminotransferase (U/L)</TranslatedText>
               </Decode>
            </CodeListItem>
            <CodeListItem CodedValue="Aspartate Aminotransferase (U/L)" OrderNumber="4">
               <Decode>
                  <TranslatedText>Aspartate Aminotransferase (U/L)</TranslatedText>
               </Decode>
            </CodeListItem>
            <CodeListItem CodedValue="Bilirubin (umol/L)" OrderNumber="5">
               <Decode>
                  <TranslatedText>Bilirubin (umol/L)</TranslatedText>
               </Decode>
            </CodeListItem>
            <CodeListItem CodedValue="Blood Urea Nitrogen (mmol/L)" OrderNumber="6">
               <Decode>
                  <TranslatedText>Blood Urea Nitrogen (mmol/L)</TranslatedText>
               </Decode>
            </CodeListItem>
            <CodeListItem CodedValue="Calcium (mmol/L)" OrderNumber="7">
               <Decode>
                  <TranslatedText>Calcium (mmol/L)</TranslatedText>
               </Decode>
            </CodeListItem>
            <CodeListItem CodedValue="Cholesterol (mmol/L)" OrderNumber="8">
               <Decode>
                  <TranslatedText>Cholesterol (mmol/L)</TranslatedText>
               </Decode>
            </CodeListItem>
            <CodeListItem CodedValue="Creatine Kinase (U/L)" OrderNumber="9">
               <Decode>
                  <TranslatedText>Creatine Kinase (U/L)</TranslatedText>
               </Decode>
            </CodeListItem>
            <CodeListItem CodedValue="Chloride (mmol/L)" OrderNumber="10">
               <Decode>
                  <TranslatedText>Chloride (mmol/L)</TranslatedText>
               </Decode>
            </CodeListItem>
            <CodeListItem CodedValue="Creatinine (umol/L)" OrderNumber="11">
               <Decode>
                  <TranslatedText>Creatinine (umol/L)</TranslatedText>
               </Decode>
            </CodeListItem>
            <CodeListItem CodedValue="Gamma Glutamyl Transferase (U/L)" OrderNumber="12">
               <Decode>
                  <TranslatedText>Gamma Glutamyl Transferase (U/L)</TranslatedText>
               </Decode>
            </CodeListItem>
            <CodeListItem CodedValue="Glucose (mmol/L)" OrderNumber="13">
               <Decode>
                  <TranslatedText>Glucose (mmol/L)</TranslatedText>
               </Decode>
            </CodeListItem>
            <CodeListItem CodedValue="Potassium (mmol/L)" OrderNumber="14">
               <Decode>
                  <TranslatedText>Potassium (mmol/L)</TranslatedText>
               </Decode>
            </CodeListItem>
            <CodeListItem CodedValue="Phosphate (mmol/L)" OrderNumber="15">
               <Decode>
                  <TranslatedText>Phosphate (mmol/L)</TranslatedText>
               </Decode>
            </CodeListItem>
            <CodeListItem CodedValue="Protein (g/L)" OrderNumber="16">
               <Decode>
                  <TranslatedText>Protein (g/L)</TranslatedText>
               </Decode>
            </CodeListItem>
            <CodeListItem CodedValue="Sodium (mmol/L)" OrderNumber="17">
               <Decode>
                  <TranslatedText>Sodium (mmol/L)</TranslatedText>
               </Decode>
            </CodeListItem>
            <CodeListItem CodedValue="Urate (umol/L)" OrderNumber="18">
               <Decode>
                  <TranslatedText>Urate (umol/L)</TranslatedText>
               </Decode>
            </CodeListItem>
            <CodeListItem CodedValue="Albumin (g/L) change from previous visit, relative to normal range"
                          OrderNumber="19">
               <Decode>
                  <TranslatedText>Albumin (g/L) change from previous visit, relative to normal range</TranslatedText>
               </Decode>
            </CodeListItem>
            <CodeListItem CodedValue="Alkaline Phosphatase (U/L) change from previous visit, relative to normal range"
                          OrderNumber="20">
               <Decode>
                  <TranslatedText>Alkaline Phosphatase (U/L) change from previous visit, relative to normal range</TranslatedText>
               </Decode>
            </CodeListItem>
            <CodeListItem CodedValue="Alanine Aminotransferase (U/L) change from previous visit, relative to normal range"
                          OrderNumber="21">
               <Decode>
                  <TranslatedText>Alanine Aminotransferase (U/L) change from previous visit, relative to normal range</TranslatedText>
               </Decode>
            </CodeListItem>
            <CodeListItem CodedValue="Aspartate Aminotransferase (U/L) change from previous visit, relative to normal range"
                          OrderNumber="22">
               <Decode>
                  <TranslatedText>Aspartate Aminotransferase (U/L) change from previous visit, relative to normal range</TranslatedText>
               </Decode>
            </CodeListItem>
            <CodeListItem CodedValue="Bilirubin (umol/L) change from previous visit, relative to normal range"
                          OrderNumber="23">
               <Decode>
                  <TranslatedText>Bilirubin (umol/L) change from previous visit, relative to normal range</TranslatedText>
               </Decode>
            </CodeListItem>
            <CodeListItem CodedValue="Blood Urea Nitrogen (mmol/L) change from previous visit, relative to normal range"
                          OrderNumber="24">
               <Decode>
                  <TranslatedText>Blood Urea Nitrogen (mmol/L) change from previous visit, relative to normal range</TranslatedText>
               </Decode>
            </CodeListItem>
            <CodeListItem CodedValue="Calcium (mmol/L) change from previous visit, relative to normal range"
                          OrderNumber="25">
               <Decode>
                  <TranslatedText>Calcium (mmol/L) change from previous visit, relative to normal range</TranslatedText>
               </Decode>
            </CodeListItem>
            <CodeListItem CodedValue="Cholesterol (mmol/L) change from previous visit, relative to normal range"
                          OrderNumber="26">
               <Decode>
                  <TranslatedText>Cholesterol (mmol/L) change from previous visit, relative to normal range</TranslatedText>
               </Decode>
            </CodeListItem>
            <CodeListItem CodedValue="Creatine Kinase (U/L) change from previous visit, relative to normal range"
                          OrderNumber="27">
               <Decode>
                  <TranslatedText>Creatine Kinase (U/L) change from previous visit, relative to normal range</TranslatedText>
               </Decode>
            </CodeListItem>
            <CodeListItem CodedValue="Chloride (mmol/L) change from previous visit, relative to normal range"
                          OrderNumber="28">
               <Decode>
                  <TranslatedText>Chloride (mmol/L) change from previous visit, relative to normal range</TranslatedText>
               </Decode>
            </CodeListItem>
            <CodeListItem CodedValue="Creatinine (umol/L) change from previous visit, relative to normal range"
                          OrderNumber="29">
               <Decode>
                  <TranslatedText>Creatinine (umol/L) change from previous visit, relative to normal range</TranslatedText>
               </Decode>
            </CodeListItem>
            <CodeListItem CodedValue="Gamma Glutamyl Transferase (U/L) change from previous visit, relative to normal range"
                          OrderNumber="30">
               <Decode>
                  <TranslatedText>Gamma Glutamyl Transferase (U/L) change from previous visit, relative to normal range</TranslatedText>
               </Decode>
            </CodeListItem>
            <CodeListItem CodedValue="Glucose (mmol/L) change from previous visit, relative to normal range"
                          OrderNumber="31">
               <Decode>
                  <TranslatedText>Glucose (mmol/L) change from previous visit, relative to normal range</TranslatedText>
               </Decode>
            </CodeListItem>
            <CodeListItem CodedValue="Potassium (mmol/L) change from previous visit, relative to normal range"
                          OrderNumber="32">
               <Decode>
                  <TranslatedText>Potassium (mmol/L) change from previous visit, relative to normal range</TranslatedText>
               </Decode>
            </CodeListItem>
            <CodeListItem CodedValue="Phosphate (mmol/L) change from previous visit, relative to normal range"
                          OrderNumber="33">
               <Decode>
                  <TranslatedText>Phosphate (mmol/L) change from previous visit, relative to normal range</TranslatedText>
               </Decode>
            </CodeListItem>
            <CodeListItem CodedValue="Protein (g/L) change from previous visit, relative to normal range"
                          OrderNumber="34">
               <Decode>
                  <TranslatedText>Protein (g/L) change from previous visit, relative to normal range</TranslatedText>
               </Decode>
            </CodeListItem>
            <CodeListItem CodedValue="Sodium (mmol/L) change from previous visit, relative to normal range"
                          OrderNumber="35">
               <Decode>
                  <TranslatedText>Sodium (mmol/L) change from previous visit, relative to normal range</TranslatedText>
               </Decode>
            </CodeListItem>
            <CodeListItem CodedValue="Urate (umol/L) change from previous visit, relative to normal range"
                          OrderNumber="36">
               <Decode>
                  <TranslatedText>Urate (umol/L) change from previous visit, relative to normal range</TranslatedText>
               </Decode>
            </CodeListItem>
         </CodeList>
         <CodeList OID="CL.PARAM_ADQSADAS" Name="PARAM_ADQSADAS" DataType="text">
            <CodeListItem CodedValue="Word Recall Task" OrderNumber="1">
               <Decode>
                  <TranslatedText>Word Recall Task</TranslatedText>
               </Decode>
            </CodeListItem>
            <CodeListItem CodedValue="Naming Objects And Fingers (Refer To 5 C" OrderNumber="2">
               <Decode>
                  <TranslatedText>Naming Objects And Fingers (Refer To 5 C</TranslatedText>
               </Decode>
            </CodeListItem>
            <CodeListItem CodedValue="Delayed Word Recall" OrderNumber="3">
               <Decode>
                  <TranslatedText>Delayed Word Recall</TranslatedText>
               </Decode>
            </CodeListItem>
            <CodeListItem CodedValue="Commands" OrderNumber="4">
               <Decode>
                  <TranslatedText>Commands</TranslatedText>
               </Decode>
            </CodeListItem>
            <CodeListItem CodedValue="Constructional Praxis" OrderNumber="5">
               <Decode>
                  <TranslatedText>Constructional Praxis</TranslatedText>
               </Decode>
            </CodeListItem>
            <CodeListItem CodedValue="Ideational Praxis" OrderNumber="6">
               <Decode>
                  <TranslatedText>Ideational Praxis</TranslatedText>
               </Decode>
            </CodeListItem>
            <CodeListItem CodedValue="Orientation" OrderNumber="7">
               <Decode>
                  <TranslatedText>Orientation</TranslatedText>
               </Decode>
            </CodeListItem>
            <CodeListItem CodedValue="Word Recognition" OrderNumber="8">
               <Decode>
                  <TranslatedText>Word Recognition</TranslatedText>
               </Decode>
            </CodeListItem>
            <CodeListItem CodedValue="Attention/Visual Search Task" OrderNumber="9">
               <Decode>
                  <TranslatedText>Attention/Visual Search Task</TranslatedText>
               </Decode>
            </CodeListItem>
            <CodeListItem CodedValue="Maze Solution" OrderNumber="10">
               <Decode>
                  <TranslatedText>Maze Solution</TranslatedText>
               </Decode>
            </CodeListItem>
            <CodeListItem CodedValue="Spoken Language Ability" OrderNumber="11">
               <Decode>
                  <TranslatedText>Spoken Language Ability</TranslatedText>
               </Decode>
            </CodeListItem>
            <CodeListItem CodedValue="Comprehension Of Spoken Language" OrderNumber="12">
               <Decode>
                  <TranslatedText>Comprehension Of Spoken Language</TranslatedText>
               </Decode>
            </CodeListItem>
            <CodeListItem CodedValue="Word Finding Difficulty In Spontaneous S" OrderNumber="13">
               <Decode>
                  <TranslatedText>Word Finding Difficulty In Spontaneous S</TranslatedText>
               </Decode>
            </CodeListItem>
            <CodeListItem CodedValue="Recall Of Test Instructions" OrderNumber="14">
               <Decode>
                  <TranslatedText>Recall Of Test Instructions</TranslatedText>
               </Decode>
            </CodeListItem>
            <CodeListItem CodedValue="Adas-Cog(11) Subscore" OrderNumber="15">
               <Decode>
                  <TranslatedText>Adas-Cog(11) Subscore</TranslatedText>
               </Decode>
            </CodeListItem>
         </CodeList>
         <CodeList OID="CL.PARAM_ADTTE" Name="PARAM_ADTTE" DataType="text">
            <CodeListItem CodedValue="Time to First Dermatologic Event" OrderNumber="1">
               <Decode>
                  <TranslatedText>Time to Derm. Event or End of Study</TranslatedText>
               </Decode>
            </CodeListItem>
         </CodeList>
         <CodeList OID="CL.PARAMCD_ADLBC" Name="PARAMCD_ADLBC" DataType="text">
            <CodeListItem CodedValue="ALB" OrderNumber="1">
               <Decode>
                  <TranslatedText>Albumin (g/L)</TranslatedText>
               </Decode>
            </CodeListItem>
            <CodeListItem CodedValue="ALP" OrderNumber="2">
               <Decode>
                  <TranslatedText>Alkaline Phosphatase (U/L)</TranslatedText>
               </Decode>
            </CodeListItem>
            <CodeListItem CodedValue="ALT" OrderNumber="3">
               <Decode>
                  <TranslatedText>Alanine Aminotransferase (U/L)</TranslatedText>
               </Decode>
            </CodeListItem>
            <CodeListItem CodedValue="AST" OrderNumber="4">
               <Decode>
                  <TranslatedText>Aspartate Aminotransferase (U/L)</TranslatedText>
               </Decode>
            </CodeListItem>
            <CodeListItem CodedValue="BILI" OrderNumber="5">
               <Decode>
                  <TranslatedText>Bilirubin (umol/L)</TranslatedText>
               </Decode>
            </CodeListItem>
            <CodeListItem CodedValue="BUN" OrderNumber="6">
               <Decode>
                  <TranslatedText>Blood Urea Nitrogen (mmol/L)</TranslatedText>
               </Decode>
            </CodeListItem>
            <CodeListItem CodedValue="CA" OrderNumber="7">
               <Decode>
                  <TranslatedText>Calcium (mmol/L)</TranslatedText>
               </Decode>
            </CodeListItem>
            <CodeListItem CodedValue="CHOL" OrderNumber="8">
               <Decode>
                  <TranslatedText>Cholesterol (mmol/L)</TranslatedText>
               </Decode>
            </CodeListItem>
            <CodeListItem CodedValue="CK" OrderNumber="9">
               <Decode>
                  <TranslatedText>Creatine Kinase (U/L)</TranslatedText>
               </Decode>
            </CodeListItem>
            <CodeListItem CodedValue="CL" OrderNumber="10">
               <Decode>
                  <TranslatedText>Chloride (mmol/L)</TranslatedText>
               </Decode>
            </CodeListItem>
            <CodeListItem CodedValue="CREAT" OrderNumber="11">
               <Decode>
                  <TranslatedText>Creatinine (umol/L)</TranslatedText>
               </Decode>
            </CodeListItem>
            <CodeListItem CodedValue="GGT" OrderNumber="12">
               <Decode>
                  <TranslatedText>Gamma Glutamyl Transferase (U/L)</TranslatedText>
               </Decode>
            </CodeListItem>
            <CodeListItem CodedValue="GLUC" OrderNumber="13">
               <Decode>
                  <TranslatedText>Glucose (mmol/L)</TranslatedText>
               </Decode>
            </CodeListItem>
            <CodeListItem CodedValue="K" OrderNumber="14">
               <Decode>
                  <TranslatedText>Potassium (mmol/L)</TranslatedText>
               </Decode>
            </CodeListItem>
            <CodeListItem CodedValue="PHOS" OrderNumber="15">
               <Decode>
                  <TranslatedText>Phosphate (mmol/L)</TranslatedText>
               </Decode>
            </CodeListItem>
            <CodeListItem CodedValue="PROT" OrderNumber="16">
               <Decode>
                  <TranslatedText>Protein (g/L)</TranslatedText>
               </Decode>
            </CodeListItem>
            <CodeListItem CodedValue="SODIUM" OrderNumber="17">
               <Decode>
                  <TranslatedText>Sodium (mmol/L)</TranslatedText>
               </Decode>
            </CodeListItem>
            <CodeListItem CodedValue="URATE" OrderNumber="18">
               <Decode>
                  <TranslatedText>Urate (umol/L)</TranslatedText>
               </Decode>
            </CodeListItem>
            <CodeListItem CodedValue="_ALB" OrderNumber="19">
               <Decode>
                  <TranslatedText>Albumin (g/L) change from previous visit, relative to normal range</TranslatedText>
               </Decode>
            </CodeListItem>
            <CodeListItem CodedValue="_ALP" OrderNumber="20">
               <Decode>
                  <TranslatedText>Alkaline Phosphatase (U/L) change from previous visit, relative to normal range</TranslatedText>
               </Decode>
            </CodeListItem>
            <CodeListItem CodedValue="_ALT" OrderNumber="21">
               <Decode>
                  <TranslatedText>Alanine Aminotransferase (U/L) change from previous visit, relative to normal range</TranslatedText>
               </Decode>
            </CodeListItem>
            <CodeListItem CodedValue="_AST" OrderNumber="22">
               <Decode>
                  <TranslatedText>Aspartate Aminotransferase (U/L) change from previous visit, relative to normal range</TranslatedText>
               </Decode>
            </CodeListItem>
            <CodeListItem CodedValue="_BILI" OrderNumber="23">
               <Decode>
                  <TranslatedText>Bilirubin (umol/L) change from previous visit, relative to normal range</TranslatedText>
               </Decode>
            </CodeListItem>
            <CodeListItem CodedValue="_BUN" OrderNumber="24">
               <Decode>
                  <TranslatedText>Blood Urea Nitrogen (mmol/L) change from previous visit, relative to normal range</TranslatedText>
               </Decode>
            </CodeListItem>
            <CodeListItem CodedValue="_CA" OrderNumber="25">
               <Decode>
                  <TranslatedText>Calcium (mmol/L) change from previous visit, relative to normal range</TranslatedText>
               </Decode>
            </CodeListItem>
            <CodeListItem CodedValue="_CHOL" OrderNumber="26">
               <Decode>
                  <TranslatedText>Cholesterol (mmol/L) change from previous visit, relative to normal range</TranslatedText>
               </Decode>
            </CodeListItem>
            <CodeListItem CodedValue="_CK" OrderNumber="27">
               <Decode>
                  <TranslatedText>Creatine Kinase (U/L) change from previous visit, relative to normal range</TranslatedText>
               </Decode>
            </CodeListItem>
            <CodeListItem CodedValue="_CL" OrderNumber="28">
               <Decode>
                  <TranslatedText>Chloride (mmol/L) change from previous visit, relative to normal range</TranslatedText>
               </Decode>
            </CodeListItem>
            <CodeListItem CodedValue="_CREAT" OrderNumber="29">
               <Decode>
                  <TranslatedText>Creatinine (umol/L) change from previous visit, relative to normal range</TranslatedText>
               </Decode>
            </CodeListItem>
            <CodeListItem CodedValue="_GGT" OrderNumber="30">
               <Decode>
                  <TranslatedText>Gamma Glutamyl Transferase (U/L) change from previous visit, relative to normal range</TranslatedText>
               </Decode>
            </CodeListItem>
            <CodeListItem CodedValue="_GLUC" OrderNumber="31">
               <Decode>
                  <TranslatedText>Glucose (mmol/L) change from previous visit, relative to normal range</TranslatedText>
               </Decode>
            </CodeListItem>
            <CodeListItem CodedValue="_K" OrderNumber="32">
               <Decode>
                  <TranslatedText>Potassium (mmol/L) change from previous visit, relative to normal range</TranslatedText>
               </Decode>
            </CodeListItem>
            <CodeListItem CodedValue="_PHOS" OrderNumber="33">
               <Decode>
                  <TranslatedText>Phosphate (mmol/L) change from previous visit, relative to normal range</TranslatedText>
               </Decode>
            </CodeListItem>
            <CodeListItem CodedValue="_PROT" OrderNumber="34">
               <Decode>
                  <TranslatedText>Protein (g/L) change from previous visit, relative to normal range</TranslatedText>
               </Decode>
            </CodeListItem>
            <CodeListItem CodedValue="_SODIUM" OrderNumber="35">
               <Decode>
                  <TranslatedText>Sodium (mmol/L) change from previous visit, relative to normal range</TranslatedText>
               </Decode>
            </CodeListItem>
            <CodeListItem CodedValue="_URATE" OrderNumber="36">
               <Decode>
                  <TranslatedText>Urate (umol/L) change from previous visit, relative to normal range</TranslatedText>
               </Decode>
            </CodeListItem>
         </CodeList>
         <CodeList OID="CL.PARAMCD_ADQSADAS" Name="PARAMCD_ADQSADAS" DataType="text">
            <CodeListItem CodedValue="ACITM01" OrderNumber="1">
               <Decode>
                  <TranslatedText>Word Recall Task</TranslatedText>
               </Decode>
            </CodeListItem>
            <CodeListItem CodedValue="ACITM02" OrderNumber="2">
               <Decode>
                  <TranslatedText>Naming Objects And Fingers (Refer To 5 C</TranslatedText>
               </Decode>
            </CodeListItem>
            <CodeListItem CodedValue="ACITM03" OrderNumber="3">
               <Decode>
                  <TranslatedText>Delayed Word Recall</TranslatedText>
               </Decode>
            </CodeListItem>
            <CodeListItem CodedValue="ACITM04" OrderNumber="4">
               <Decode>
                  <TranslatedText>Commands</TranslatedText>
               </Decode>
            </CodeListItem>
            <CodeListItem CodedValue="ACITM05" OrderNumber="5">
               <Decode>
                  <TranslatedText>Constructional Praxis</TranslatedText>
               </Decode>
            </CodeListItem>
            <CodeListItem CodedValue="ACITM06" OrderNumber="6">
               <Decode>
                  <TranslatedText>Ideational Praxis</TranslatedText>
               </Decode>
            </CodeListItem>
            <CodeListItem CodedValue="ACITM07" OrderNumber="7">
               <Decode>
                  <TranslatedText>Orientation</TranslatedText>
               </Decode>
            </CodeListItem>
            <CodeListItem CodedValue="ACITM08" OrderNumber="8">
               <Decode>
                  <TranslatedText>Word Recognition</TranslatedText>
               </Decode>
            </CodeListItem>
            <CodeListItem CodedValue="ACITM09" OrderNumber="9">
               <Decode>
                  <TranslatedText>Attention/Visual Search Task</TranslatedText>
               </Decode>
            </CodeListItem>
            <CodeListItem CodedValue="ACITM10" OrderNumber="10">
               <Decode>
                  <TranslatedText>Maze Solution</TranslatedText>
               </Decode>
            </CodeListItem>
            <CodeListItem CodedValue="ACITM11" OrderNumber="11">
               <Decode>
                  <TranslatedText>Spoken Language Ability</TranslatedText>
               </Decode>
            </CodeListItem>
            <CodeListItem CodedValue="ACITM12" OrderNumber="12">
               <Decode>
                  <TranslatedText>Comprehension Of Spoken Language</TranslatedText>
               </Decode>
            </CodeListItem>
            <CodeListItem CodedValue="ACITM13" OrderNumber="13">
               <Decode>
                  <TranslatedText>Word Finding Difficulty In Spontaneous S</TranslatedText>
               </Decode>
            </CodeListItem>
            <CodeListItem CodedValue="ACITM14" OrderNumber="14">
               <Decode>
                  <TranslatedText>Recall Of Test Instructions</TranslatedText>
               </Decode>
            </CodeListItem>
            <CodeListItem CodedValue="ACTOT" OrderNumber="15">
               <Decode>
                  <TranslatedText>Adas-Cog(11) Subscore</TranslatedText>
               </Decode>
            </CodeListItem>
         </CodeList>
         <CodeList OID="CL.PARAMCD_ADTTE" Name="PARAMCD_ADTTE" DataType="text">
            <CodeListItem CodedValue="TTDE" OrderNumber="1">
               <Decode>
                  <TranslatedText>Time to Derm. Event or End of Study</TranslatedText>
               </Decode>
            </CodeListItem>
         </CodeList>
         <CodeList OID="CL.PARAMN_ADLBC" Name="PARAMN_ADLBC" DataType="integer">
            <CodeListItem CodedValue="18" OrderNumber="1">
               <Decode>
                  <TranslatedText>Sodium (mmol/L)</TranslatedText>
               </Decode>
            </CodeListItem>
            <CodeListItem CodedValue="19" OrderNumber="2">
               <Decode>
                  <TranslatedText>Potassium (mmol/L)</TranslatedText>
               </Decode>
            </CodeListItem>
            <CodeListItem CodedValue="20" OrderNumber="3">
               <Decode>
                  <TranslatedText>Chloride (mmol/L)</TranslatedText>
               </Decode>
            </CodeListItem>
            <CodeListItem CodedValue="21" OrderNumber="4">
               <Decode>
                  <TranslatedText>Bilirubin (umol/L)</TranslatedText>
               </Decode>
            </CodeListItem>
            <CodeListItem CodedValue="22" OrderNumber="5">
               <Decode>
                  <TranslatedText>Alkaline Phosphatase (U/L)</TranslatedText>
               </Decode>
            </CodeListItem>
            <CodeListItem CodedValue="23" OrderNumber="6">
               <Decode>
                  <TranslatedText>Gamma Glutamyl Transferase (U/L)</TranslatedText>
               </Decode>
            </CodeListItem>
            <CodeListItem CodedValue="24" OrderNumber="7">
               <Decode>
                  <TranslatedText>Alanine Aminotransferase (U/L)</TranslatedText>
               </Decode>
            </CodeListItem>
            <CodeListItem CodedValue="25" OrderNumber="8">
               <Decode>
                  <TranslatedText>Aspartate Aminotransferase (U/L)</TranslatedText>
               </Decode>
            </CodeListItem>
            <CodeListItem CodedValue="26" OrderNumber="9">
               <Decode>
                  <TranslatedText>Blood Urea Nitrogen (mmol/L)</TranslatedText>
               </Decode>
            </CodeListItem>
            <CodeListItem CodedValue="27" OrderNumber="10">
               <Decode>
                  <TranslatedText>Creatinine (umol/L)</TranslatedText>
               </Decode>
            </CodeListItem>
            <CodeListItem CodedValue="28" OrderNumber="11">
               <Decode>
                  <TranslatedText>Urate (umol/L)</TranslatedText>
               </Decode>
            </CodeListItem>
            <CodeListItem CodedValue="29" OrderNumber="12">
               <Decode>
                  <TranslatedText>Phosphate (mmol/L)</TranslatedText>
               </Decode>
            </CodeListItem>
            <CodeListItem CodedValue="30" OrderNumber="13">
               <Decode>
                  <TranslatedText>Calcium (mmol/L)</TranslatedText>
               </Decode>
            </CodeListItem>
            <CodeListItem CodedValue="31" OrderNumber="14">
               <Decode>
                  <TranslatedText>Glucose (mmol/L)</TranslatedText>
               </Decode>
            </CodeListItem>
            <CodeListItem CodedValue="32" OrderNumber="15">
               <Decode>
                  <TranslatedText>Protein (g/L)</TranslatedText>
               </Decode>
            </CodeListItem>
            <CodeListItem CodedValue="33" OrderNumber="16">
               <Decode>
                  <TranslatedText>Albumin (g/L)</TranslatedText>
               </Decode>
            </CodeListItem>
            <CodeListItem CodedValue="34" OrderNumber="17">
               <Decode>
                  <TranslatedText>Cholesterol (mmol/L)</TranslatedText>
               </Decode>
            </CodeListItem>
            <CodeListItem CodedValue="35" OrderNumber="18">
               <Decode>
                  <TranslatedText>Creatine Kinase (U/L)</TranslatedText>
               </Decode>
            </CodeListItem>
            <CodeListItem CodedValue="118" OrderNumber="19">
               <Decode>
                  <TranslatedText>Sodium (mmol/L) change from previous visit, relative to normal range</TranslatedText>
               </Decode>
            </CodeListItem>
            <CodeListItem CodedValue="119" OrderNumber="20">
               <Decode>
                  <TranslatedText>Potassium (mmol/L) change from previous visit, relative to normal range</TranslatedText>
               </Decode>
            </CodeListItem>
            <CodeListItem CodedValue="120" OrderNumber="21">
               <Decode>
                  <TranslatedText>Chloride (mmol/L) change from previous visit, relative to normal range</TranslatedText>
               </Decode>
            </CodeListItem>
            <CodeListItem CodedValue="121" OrderNumber="22">
               <Decode>
                  <TranslatedText>Bilirubin (umol/L) change from previous visit, relative to normal range</TranslatedText>
               </Decode>
            </CodeListItem>
            <CodeListItem CodedValue="122" OrderNumber="23">
               <Decode>
                  <TranslatedText>Alkaline Phosphatase (U/L) change from previous visit, relative to normal range</TranslatedText>
               </Decode>
            </CodeListItem>
            <CodeListItem CodedValue="123" OrderNumber="24">
               <Decode>
                  <TranslatedText>Gamma Glutamyl Transferase (U/L) change from previous visit, relative to normal range</TranslatedText>
               </Decode>
            </CodeListItem>
            <CodeListItem CodedValue="124" OrderNumber="25">
               <Decode>
                  <TranslatedText>Alanine Aminotransferase (U/L) change from previous visit, relative to normal range</TranslatedText>
               </Decode>
            </CodeListItem>
            <CodeListItem CodedValue="125" OrderNumber="26">
               <Decode>
                  <TranslatedText>Aspartate Aminotransferase (U/L) change from previous visit, relative to normal range</TranslatedText>
               </Decode>
            </CodeListItem>
            <CodeListItem CodedValue="126" OrderNumber="27">
               <Decode>
                  <TranslatedText>Blood Urea Nitrogen (mmol/L) change from previous visit, relative to normal range</TranslatedText>
               </Decode>
            </CodeListItem>
            <CodeListItem CodedValue="127" OrderNumber="28">
               <Decode>
                  <TranslatedText>Creatinine (umol/L) change from previous visit, relative to normal range</TranslatedText>
               </Decode>
            </CodeListItem>
            <CodeListItem CodedValue="128" OrderNumber="29">
               <Decode>
                  <TranslatedText>Urate (umol/L) change from previous visit, relative to normal range</TranslatedText>
               </Decode>
            </CodeListItem>
            <CodeListItem CodedValue="129" OrderNumber="30">
               <Decode>
                  <TranslatedText>Phosphate (mmol/L) change from previous visit, relative to normal range</TranslatedText>
               </Decode>
            </CodeListItem>
            <CodeListItem CodedValue="130" OrderNumber="31">
               <Decode>
                  <TranslatedText>Calcium (mmol/L) change from previous visit, relative to normal range</TranslatedText>
               </Decode>
            </CodeListItem>
            <CodeListItem CodedValue="131" OrderNumber="32">
               <Decode>
                  <TranslatedText>Glucose (mmol/L) change from previous visit, relative to normal range</TranslatedText>
               </Decode>
            </CodeListItem>
            <CodeListItem CodedValue="132" OrderNumber="33">
               <Decode>
                  <TranslatedText>Protein (g/L) change from previous visit, relative to normal range</TranslatedText>
               </Decode>
            </CodeListItem>
            <CodeListItem CodedValue="133" OrderNumber="34">
               <Decode>
                  <TranslatedText>Albumin (g/L) change from previous visit, relative to normal range</TranslatedText>
               </Decode>
            </CodeListItem>
            <CodeListItem CodedValue="134" OrderNumber="35">
               <Decode>
                  <TranslatedText>Cholesterol (mmol/L) change from previous visit, relative to normal range</TranslatedText>
               </Decode>
            </CodeListItem>
            <CodeListItem CodedValue="135" OrderNumber="36">
               <Decode>
                  <TranslatedText>Creatine Kinase (U/L) change from previous visit, relative to normal range</TranslatedText>
               </Decode>
            </CodeListItem>
         </CodeList>
         <CodeList OID="CL.PARAMN_ADQSADAS" Name="PARAMN_ADQSADAS" DataType="integer">
            <CodeListItem CodedValue="1" OrderNumber="1">
               <Decode>
                  <TranslatedText>Word Recall Task</TranslatedText>
               </Decode>
            </CodeListItem>
            <CodeListItem CodedValue="2" OrderNumber="2">
               <Decode>
                  <TranslatedText>Naming Objects And Fingers (Refer To 5 C</TranslatedText>
               </Decode>
            </CodeListItem>
            <CodeListItem CodedValue="3" OrderNumber="3">
               <Decode>
                  <TranslatedText>Delayed Word Recall</TranslatedText>
               </Decode>
            </CodeListItem>
            <CodeListItem CodedValue="4" OrderNumber="4">
               <Decode>
                  <TranslatedText>Commands</TranslatedText>
               </Decode>
            </CodeListItem>
            <CodeListItem CodedValue="5" OrderNumber="5">
               <Decode>
                  <TranslatedText>Constructional Praxis</TranslatedText>
               </Decode>
            </CodeListItem>
            <CodeListItem CodedValue="6" OrderNumber="6">
               <Decode>
                  <TranslatedText>Ideational Praxis</TranslatedText>
               </Decode>
            </CodeListItem>
            <CodeListItem CodedValue="7" OrderNumber="7">
               <Decode>
                  <TranslatedText>Orientation</TranslatedText>
               </Decode>
            </CodeListItem>
            <CodeListItem CodedValue="8" OrderNumber="8">
               <Decode>
                  <TranslatedText>Word Recognition</TranslatedText>
               </Decode>
            </CodeListItem>
            <CodeListItem CodedValue="9" OrderNumber="9">
               <Decode>
                  <TranslatedText>Attention/Visual Search Task</TranslatedText>
               </Decode>
            </CodeListItem>
            <CodeListItem CodedValue="10" OrderNumber="10">
               <Decode>
                  <TranslatedText>Maze Solution</TranslatedText>
               </Decode>
            </CodeListItem>
            <CodeListItem CodedValue="11" OrderNumber="11">
               <Decode>
                  <TranslatedText>Spoken Language Ability</TranslatedText>
               </Decode>
            </CodeListItem>
            <CodeListItem CodedValue="12" OrderNumber="12">
               <Decode>
                  <TranslatedText>Comprehension Of Spoken Language</TranslatedText>
               </Decode>
            </CodeListItem>
            <CodeListItem CodedValue="13" OrderNumber="13">
               <Decode>
                  <TranslatedText>Word Finding Difficulty In Spontaneous S</TranslatedText>
               </Decode>
            </CodeListItem>
            <CodeListItem CodedValue="14" OrderNumber="14">
               <Decode>
                  <TranslatedText>Recall Of Test Instructions</TranslatedText>
               </Decode>
            </CodeListItem>
            <CodeListItem CodedValue="15" OrderNumber="15">
               <Decode>
                  <TranslatedText>Adas-Cog(11) Subscore</TranslatedText>
               </Decode>
            </CodeListItem>
         </CodeList>
         <CodeList OID="CL.RACE" Name="RACE" DataType="text">
            <CodeListItem CodedValue="WHITE" OrderNumber="1">
               <Decode>
                  <TranslatedText>WHITE</TranslatedText>
               </Decode>
               <Alias Name="C41261" Context="nci:ExtCodeID"/>
            </CodeListItem>
            <CodeListItem CodedValue="BLACK OR AFRICAN AMERICAN" OrderNumber="2">
               <Decode>
                  <TranslatedText>BLACK OR AFRICAN AMERICAN</TranslatedText>
               </Decode>
               <Alias Name="C16352" Context="nci:ExtCodeID"/>
            </CodeListItem>
            <CodeListItem CodedValue="AMERICAN INDIAN OR ALASKA NATIVE" OrderNumber="3">
               <Decode>
                  <TranslatedText>AMERICAN INDIAN OR ALASKA NATIVE</TranslatedText>
               </Decode>
               <Alias Name="C41259" Context="nci:ExtCodeID"/>
            </CodeListItem>
            <CodeListItem CodedValue="ASIAN" OrderNumber="4">
               <Decode>
                  <TranslatedText>ASIAN</TranslatedText>
               </Decode>
               <Alias Name="C41260" Context="nci:ExtCodeID"/>
            </CodeListItem>
            <CodeListItem CodedValue="NATIVE HAWAIIAN OR OTHER PACIFIC ISLANDER" OrderNumber="5">
               <Decode>
                  <TranslatedText>NATIVE HAWAIIAN OR OTHER PACIFIC ISLANDER</TranslatedText>
               </Decode>
               <Alias Name="C41219" Context="nci:ExtCodeID"/>
            </CodeListItem>
            <Alias Name="C74457" Context="nci:ExtCodeID"/>
         </CodeList>
         <CodeList OID="CL.RACEN" Name="RACEN" DataType="integer">
            <CodeListItem CodedValue="1" OrderNumber="1">
               <Decode>
                  <TranslatedText>WHITE</TranslatedText>
               </Decode>
            </CodeListItem>
            <CodeListItem CodedValue="2" OrderNumber="2">
               <Decode>
                  <TranslatedText>BLACK OR AFRICAN AMERICAN</TranslatedText>
               </Decode>
            </CodeListItem>
            <CodeListItem CodedValue="6" OrderNumber="3">
               <Decode>
                  <TranslatedText>AMERICAN INDIAN OR ALASKA NATIVE</TranslatedText>
               </Decode>
            </CodeListItem>
            <CodeListItem CodedValue="7" OrderNumber="4">
               <Decode>
                  <TranslatedText>ASIAN</TranslatedText>
               </Decode>
            </CodeListItem>
            <CodeListItem CodedValue="5" OrderNumber="5">
               <Decode>
                  <TranslatedText>NATIVE HAWAIIAN OR OTHER PACIFIC ISLANDER</TranslatedText>
               </Decode>
            </CodeListItem>
         </CodeList>
         <CodeList OID="CL.SEX" Name="SEX" DataType="text">
            <EnumeratedItem CodedValue="M" OrderNumber="1">
               <Alias Name="C20197" Context="nci:ExtCodeID"/>
            </EnumeratedItem>
            <EnumeratedItem CodedValue="F" OrderNumber="2">
               <Alias Name="C16576" Context="nci:ExtCodeID"/>
            </EnumeratedItem>
            <Alias Name="C66731" Context="nci:ExtCodeID"/>
         </CodeList>
         <CodeList OID="CL.VISIT" Name="VISIT" DataType="text">
            <CodeListItem CodedValue="SCREENING 1" OrderNumber="1">
               <Decode>
                  <TranslatedText>SCREENING 1</TranslatedText>
               </Decode>
            </CodeListItem>
            <CodeListItem CodedValue="UNSCHEDULED 1.1" OrderNumber="2">
               <Decode>
                  <TranslatedText>UNSCHEDULED 1.1</TranslatedText>
               </Decode>
            </CodeListItem>
            <CodeListItem CodedValue="UNSCHEDULED 1.2" OrderNumber="3">
               <Decode>
                  <TranslatedText>UNSCHEDULED 1.2</TranslatedText>
               </Decode>
            </CodeListItem>
            <CodeListItem CodedValue="UNSCHEDULED 1.3" OrderNumber="4">
               <Decode>
                  <TranslatedText>UNSCHEDULED 1.3</TranslatedText>
               </Decode>
            </CodeListItem>
            <CodeListItem CodedValue="SCREENING 2" OrderNumber="5">
               <Decode>
                  <TranslatedText>SCREENING 2</TranslatedText>
               </Decode>
            </CodeListItem>
            <CodeListItem CodedValue="BASELINE" OrderNumber="6">
               <Decode>
                  <TranslatedText>BASELINE</TranslatedText>
               </Decode>
            </CodeListItem>
            <CodeListItem CodedValue="UNSCHEDULED 3.1" OrderNumber="7">
               <Decode>
                  <TranslatedText>UNSCHEDULED 3.1</TranslatedText>
               </Decode>
            </CodeListItem>
            <CodeListItem CodedValue="AMBUL ECG PLACEMENT" OrderNumber="8">
               <Decode>
                  <TranslatedText>AMBUL ECG PLACEMENT</TranslatedText>
               </Decode>
            </CodeListItem>
            <CodeListItem CodedValue="WEEK 2" OrderNumber="9">
               <Decode>
                  <TranslatedText>WEEK 2</TranslatedText>
               </Decode>
            </CodeListItem>
            <CodeListItem CodedValue="UNSCHEDULED 4.1" OrderNumber="10">
               <Decode>
                  <TranslatedText>UNSCHEDULED 4.1</TranslatedText>
               </Decode>
            </CodeListItem>
            <CodeListItem CodedValue="UNSCHEDULED 4.2" OrderNumber="11">
               <Decode>
                  <TranslatedText>UNSCHEDULED 4.2</TranslatedText>
               </Decode>
            </CodeListItem>
            <CodeListItem CodedValue="WEEK 4" OrderNumber="12">
               <Decode>
                  <TranslatedText>WEEK 4</TranslatedText>
               </Decode>
            </CodeListItem>
            <CodeListItem CodedValue="UNSCHEDULED 5.1" OrderNumber="13">
               <Decode>
                  <TranslatedText>UNSCHEDULED 5.1</TranslatedText>
               </Decode>
            </CodeListItem>
            <CodeListItem CodedValue="AMBUL ECG REMOVAL" OrderNumber="14">
               <Decode>
                  <TranslatedText>AMBUL ECG REMOVAL</TranslatedText>
               </Decode>
            </CodeListItem>
            <CodeListItem CodedValue="UNSCHEDULED 6.1" OrderNumber="15">
               <Decode>
                  <TranslatedText>UNSCHEDULED 6.1</TranslatedText>
               </Decode>
            </CodeListItem>
            <CodeListItem CodedValue="WEEK 6" OrderNumber="16">
               <Decode>
                  <TranslatedText>WEEK 6</TranslatedText>
               </Decode>
            </CodeListItem>
            <CodeListItem CodedValue="UNSCHEDULED 7.1" OrderNumber="17">
               <Decode>
                  <TranslatedText>UNSCHEDULED 7.1</TranslatedText>
               </Decode>
            </CodeListItem>
            <CodeListItem CodedValue="WEEK 8" OrderNumber="18">
               <Decode>
                  <TranslatedText>WEEK 8</TranslatedText>
               </Decode>
            </CodeListItem>
            <CodeListItem CodedValue="WEEK 10 (T)" OrderNumber="19">
               <Decode>
                  <TranslatedText>WEEK 10 (T)</TranslatedText>
               </Decode>
            </CodeListItem>
            <CodeListItem CodedValue="UNSCHEDULED 8.2" OrderNumber="20">
               <Decode>
                  <TranslatedText>UNSCHEDULED 8.2</TranslatedText>
               </Decode>
            </CodeListItem>
            <CodeListItem CodedValue="WEEK 12" OrderNumber="21">
               <Decode>
                  <TranslatedText>WEEK 12</TranslatedText>
               </Decode>
            </CodeListItem>
            <CodeListItem CodedValue="WEEK 14 (T)" OrderNumber="22">
               <Decode>
                  <TranslatedText>WEEK 14 (T)</TranslatedText>
               </Decode>
            </CodeListItem>
            <CodeListItem CodedValue="UNSCHEDULED 9.2" OrderNumber="23">
               <Decode>
                  <TranslatedText>UNSCHEDULED 9.2</TranslatedText>
               </Decode>
            </CodeListItem>
            <CodeListItem CodedValue="UNSCHEDULED 9.3" OrderNumber="24">
               <Decode>
                  <TranslatedText>UNSCHEDULED 9.3</TranslatedText>
               </Decode>
            </CodeListItem>
            <CodeListItem CodedValue="WEEK 16" OrderNumber="25">
               <Decode>
                  <TranslatedText>WEEK 16</TranslatedText>
               </Decode>
            </CodeListItem>
            <CodeListItem CodedValue="WEEK 18 (T)" OrderNumber="26">
               <Decode>
                  <TranslatedText>WEEK 18 (T)</TranslatedText>
               </Decode>
            </CodeListItem>
            <CodeListItem CodedValue="UNSCHEDULED 10.2" OrderNumber="27">
               <Decode>
                  <TranslatedText>UNSCHEDULED 10.2</TranslatedText>
               </Decode>
            </CodeListItem>
            <CodeListItem CodedValue="WEEK 20" OrderNumber="28">
               <Decode>
                  <TranslatedText>WEEK 20</TranslatedText>
               </Decode>
            </CodeListItem>
            <CodeListItem CodedValue="WEEK 22 (T)" OrderNumber="29">
               <Decode>
                  <TranslatedText>WEEK 22 (T)</TranslatedText>
               </Decode>
            </CodeListItem>
            <CodeListItem CodedValue="UNSCHEDULED 11.2" OrderNumber="30">
               <Decode>
                  <TranslatedText>UNSCHEDULED 11.2</TranslatedText>
               </Decode>
            </CodeListItem>
            <CodeListItem CodedValue="WEEK 24" OrderNumber="31">
               <Decode>
                  <TranslatedText>WEEK 24</TranslatedText>
               </Decode>
            </CodeListItem>
            <CodeListItem CodedValue="UNSCHEDULED 12.1" OrderNumber="32">
               <Decode>
                  <TranslatedText>UNSCHEDULED 12.1</TranslatedText>
               </Decode>
            </CodeListItem>
            <CodeListItem CodedValue="WEEK 26" OrderNumber="33">
               <Decode>
                  <TranslatedText>WEEK 26</TranslatedText>
               </Decode>
            </CodeListItem>
            <CodeListItem CodedValue="UNSCHEDULED 13.1" OrderNumber="34">
               <Decode>
                  <TranslatedText>UNSCHEDULED 13.1</TranslatedText>
               </Decode>
            </CodeListItem>
            <CodeListItem CodedValue="AE FOLLOW-UP" OrderNumber="35">
               <Decode>
                  <TranslatedText>AE FOLLOW-UP</TranslatedText>
               </Decode>
            </CodeListItem>
            <CodeListItem CodedValue="RETRIEVAL" OrderNumber="36">
               <Decode>
                  <TranslatedText>RETRIEVAL</TranslatedText>
               </Decode>
            </CodeListItem>
            <CodeListItem CodedValue="Rash followup" OrderNumber="37">
               <Decode>
                  <TranslatedText>Rash followup</TranslatedText>
               </Decode>
            </CodeListItem>
         </CodeList>
         <CodeList OID="CL.VISITNUM" Name="VISITNUM" DataType="float">
            <CodeListItem CodedValue="1" OrderNumber="1">
               <Decode>
                  <TranslatedText>SCREENING 1</TranslatedText>
               </Decode>
            </CodeListItem>
            <CodeListItem CodedValue="1.1" OrderNumber="2">
               <Decode>
                  <TranslatedText>UNSCHEDULED 1.1</TranslatedText>
               </Decode>
            </CodeListItem>
            <CodeListItem CodedValue="1.2" OrderNumber="3">
               <Decode>
                  <TranslatedText>UNSCHEDULED 1.2</TranslatedText>
               </Decode>
            </CodeListItem>
            <CodeListItem CodedValue="1.3" OrderNumber="4">
               <Decode>
                  <TranslatedText>UNSCHEDULED 1.3</TranslatedText>
               </Decode>
            </CodeListItem>
            <CodeListItem CodedValue="2" OrderNumber="5">
               <Decode>
                  <TranslatedText>SCREENING 2</TranslatedText>
               </Decode>
            </CodeListItem>
            <CodeListItem CodedValue="3" OrderNumber="6">
               <Decode>
                  <TranslatedText>BASELINE</TranslatedText>
               </Decode>
            </CodeListItem>
            <CodeListItem CodedValue="3.1" OrderNumber="7">
               <Decode>
                  <TranslatedText>UNSCHEDULED 3.1</TranslatedText>
               </Decode>
            </CodeListItem>
            <CodeListItem CodedValue="3.5" OrderNumber="8">
               <Decode>
                  <TranslatedText>AMBUL ECG PLACEMENT</TranslatedText>
               </Decode>
            </CodeListItem>
            <CodeListItem CodedValue="4" OrderNumber="9">
               <Decode>
                  <TranslatedText>WEEK 2</TranslatedText>
               </Decode>
            </CodeListItem>
            <CodeListItem CodedValue="4.1" OrderNumber="10">
               <Decode>
                  <TranslatedText>UNSCHEDULED 4.1</TranslatedText>
               </Decode>
            </CodeListItem>
            <CodeListItem CodedValue="4.2" OrderNumber="11">
               <Decode>
                  <TranslatedText>UNSCHEDULED 4.2</TranslatedText>
               </Decode>
            </CodeListItem>
            <CodeListItem CodedValue="5" OrderNumber="12">
               <Decode>
                  <TranslatedText>WEEK 4</TranslatedText>
               </Decode>
            </CodeListItem>
            <CodeListItem CodedValue="5.1" OrderNumber="13">
               <Decode>
                  <TranslatedText>UNSCHEDULED 5.1</TranslatedText>
               </Decode>
            </CodeListItem>
            <CodeListItem CodedValue="6" OrderNumber="14">
               <Decode>
                  <TranslatedText>AMBUL ECG REMOVAL</TranslatedText>
               </Decode>
            </CodeListItem>
            <CodeListItem CodedValue="6.1" OrderNumber="15">
               <Decode>
                  <TranslatedText>UNSCHEDULED 6.1</TranslatedText>
               </Decode>
            </CodeListItem>
            <CodeListItem CodedValue="7" OrderNumber="16">
               <Decode>
                  <TranslatedText>WEEK 6</TranslatedText>
