<?xml version="1.0" encoding="UTF-8"?>
<?xml-stylesheet type="text/xsl" href="define2-0-0.xsl"?>
<ODM
     xmlns:xlink="http://www.w3.org/1999/xlink"
     xmlns="http://www.cdisc.org/ns/odm/v1.3"
     xmlns:def="http://www.cdisc.org/ns/def/v2.0"
     ODMVersion="1.3.2"
     FileType="Snapshot"
     FileOID="TDF_ADaM.CDISC ADaM.2.1"
     CreationDateTime="2018-11-19T08:44:02">
   <Study OID="TDF_ADaM.CDISC ADaM.2.1">
      <GlobalVariables>
         <StudyName>TDF_ADaM</StudyName>
         <StudyDescription>Test datasets created by updating existing CDISCPILOT ADaM datasets</StudyDescription>
         <ProtocolName>TDF_Datasets</ProtocolName>
      </GlobalVariables>
      <MetaDataVersion OID="MDV.TDF_ADaM.CDISC ADaM.2.1" Name="Study TDF_ADaM Data Definitions"
                       Description="Test datasets created by updating existing CDISCPILOT ADaM datasets"
                       def:DefineVersion="2.0.0"
                       def:StandardName="ADaM-IG"
                       def:StandardVersion="1.0">
         <def:SupplementalDoc>
            <def:DocumentRef leafID="LF.Suppdoc"/>
         </def:SupplementalDoc>
         <ItemGroupDef OID="IG.ADADAS" Name="ADADAS" Repeating="Yes" IsReferenceData="No"
                       SASDatasetName="ADADAS"
                       Purpose="Analysis"
                       def:Structure="one record per subject per parameter per analysis visit per analysis date"
                       def:Class="BASIC DATA STRUCTURE"
                       def:ArchiveLocationID="LF.ADADAS">
            <Description>
               <TranslatedText xml:lang="en">ADAS-Cog Analysis</TranslatedText>
            </Description>
            <ItemRef ItemOID="IT.ADADAS.STUDYID" OrderNumber="1" Mandatory="No"
                     MethodOID="MT.ADQSADAS.STUDYID"/>
            <ItemRef ItemOID="IT.ADADAS.SITEID" OrderNumber="2" Mandatory="No"
                     MethodOID="MT.ADQSADAS.SITEID"/>
            <ItemRef ItemOID="IT.ADADAS.SITEGR1" OrderNumber="3" Mandatory="No"
                     MethodOID="MT.ADQSADAS.SITEGR1"/>
            <ItemRef ItemOID="IT.ADADAS.USUBJID" OrderNumber="4" Mandatory="No" KeySequence="1"
                     MethodOID="MT.ADQSADAS.USUBJID"/>
            <ItemRef ItemOID="IT.ADADAS.TRTSDT" OrderNumber="5" Mandatory="No"
                     MethodOID="MT.ADQSADAS.TRTSDT"/>
            <ItemRef ItemOID="IT.ADADAS.TRTEDT" OrderNumber="6" Mandatory="No"
                     MethodOID="MT.ADQSADAS.TRTEDT"/>
            <ItemRef ItemOID="IT.ADADAS.TRTP" OrderNumber="7" Mandatory="No"
                     MethodOID="MT.ADQSADAS.TRTP"/>
            <ItemRef ItemOID="IT.ADADAS.TRTPN" OrderNumber="8" Mandatory="No"
                     MethodOID="MT.ADQSADAS.TRTPN"/>
            <ItemRef ItemOID="IT.ADADAS.AGE" OrderNumber="9" Mandatory="No"
                     MethodOID="MT.ADQSADAS.AGE"/>
            <ItemRef ItemOID="IT.ADADAS.AGEGR1" OrderNumber="10" Mandatory="No"
                     MethodOID="MT.ADQSADAS.AGEGR1"/>
            <ItemRef ItemOID="IT.ADADAS.AGEGR1N" OrderNumber="11" Mandatory="No"
                     MethodOID="MT.ADQSADAS.AGEGR1N"/>
            <ItemRef ItemOID="IT.ADADAS.RACE" OrderNumber="12" Mandatory="No"
                     MethodOID="MT.ADQSADAS.RACE"/>
            <ItemRef ItemOID="IT.ADADAS.RACEN" OrderNumber="13" Mandatory="No"
                     MethodOID="MT.ADQSADAS.RACEN"/>
            <ItemRef ItemOID="IT.ADADAS.SEX" OrderNumber="14" Mandatory="No"
                     MethodOID="MT.ADQSADAS.SEX"/>
            <ItemRef ItemOID="IT.ADADAS.ITTFL" OrderNumber="15" Mandatory="No"
                     MethodOID="MT.ADQSADAS.ITTFL"/>
            <ItemRef ItemOID="IT.ADADAS.EFFFL" OrderNumber="16" Mandatory="No"
                     MethodOID="MT.ADQSADAS.EFFFL"/>
            <ItemRef ItemOID="IT.ADADAS.COMP24FL" OrderNumber="17" Mandatory="No"
                     MethodOID="MT.ADQSADAS.COMP24FL"/>
            <ItemRef ItemOID="IT.ADADAS.AVISIT" OrderNumber="18" Mandatory="No" KeySequence="3"
                     MethodOID="MT.ADQSADAS.AVISIT"/>
            <ItemRef ItemOID="IT.ADADAS.AVISITN" OrderNumber="19" Mandatory="No"
                     MethodOID="MT.ADQSADAS.AVISITN"/>
            <ItemRef ItemOID="IT.ADADAS.VISIT" OrderNumber="20" Mandatory="No"
                     MethodOID="MT.ADQSADAS.VISIT"/>
            <ItemRef ItemOID="IT.ADADAS.VISITNUM" OrderNumber="21" Mandatory="No"
                     MethodOID="MT.ADQSADAS.VISITNUM"/>
            <ItemRef ItemOID="IT.ADADAS.ADY" OrderNumber="22" Mandatory="No"
                     MethodOID="MT.ADQSADAS.ADY"/>
            <ItemRef ItemOID="IT.ADADAS.ADT" OrderNumber="23" Mandatory="No" KeySequence="4"
                     MethodOID="MT.ADQSADAS.ADT"/>
            <ItemRef ItemOID="IT.ADADAS.PARAM" OrderNumber="24" Mandatory="No"
                     MethodOID="ADADAS.PARAM"/>
            <ItemRef ItemOID="IT.ADADAS.PARAMCD" OrderNumber="25" Mandatory="No" KeySequence="2"
                     MethodOID="ADADAS.PARAMCD"/>
            <ItemRef ItemOID="IT.ADADAS.PARAMN" OrderNumber="26" Mandatory="No"
                     MethodOID="MT.ADQSADAS.PARAMN"/>
            <ItemRef ItemOID="IT.ADADAS.AVAL" OrderNumber="27" Mandatory="No"
                     MethodOID="MT.ADADAS.AVAL"/>
            <ItemRef ItemOID="IT.ADADAS.BASE" OrderNumber="28" Mandatory="No"
                     MethodOID="MT.ADQSADAS.BASE"/>
            <ItemRef ItemOID="IT.ADADAS.CHG" OrderNumber="29" Mandatory="No"
                     MethodOID="MT.ADQSADAS.CHG"/>
            <ItemRef ItemOID="IT.ADADAS.PCHG" OrderNumber="30" Mandatory="No"
                     MethodOID="MT.ADQSADAS.PCHG"/>
            <ItemRef ItemOID="IT.ADADAS.ABLFL" OrderNumber="31" Mandatory="No"
                     MethodOID="MT.ADQSADAS.ABLFL"/>
            <ItemRef ItemOID="IT.ADADAS.ANL01FL" OrderNumber="32" Mandatory="No"
                     MethodOID="MT.ADQSADAS.ANL01FL"/>
            <ItemRef ItemOID="IT.ADADAS.DTYPE" OrderNumber="33" Mandatory="No"
                     MethodOID="MT.ADADAS.DTYPE"/>
            <ItemRef ItemOID="IT.ADADAS.AWRANGE" OrderNumber="34" Mandatory="No"
                     MethodOID="MT.ADQSADAS.AWRANGE"/>
            <ItemRef ItemOID="IT.ADADAS.AWTARGET" OrderNumber="35" Mandatory="No"
                     MethodOID="MT.ADQSADAS.AWTARGET"/>
            <ItemRef ItemOID="IT.ADADAS.AWTDIFF" OrderNumber="36" Mandatory="No"
                     MethodOID="MT.ADQSADAS.AWTDIFF"/>
            <ItemRef ItemOID="IT.ADADAS.AWLO" OrderNumber="37" Mandatory="No"
                     MethodOID="MT.ADQSADAS.AWLO"/>
            <ItemRef ItemOID="IT.ADADAS.AWHI" OrderNumber="38" Mandatory="No"
                     MethodOID="MT.ADQSADAS.AWHI"/>
            <ItemRef ItemOID="IT.ADADAS.AWU" OrderNumber="39" Mandatory="No"
                     MethodOID="MT.ADQSADAS.AWU"/>
            <ItemRef ItemOID="IT.ADADAS.QSSEQ" OrderNumber="40" Mandatory="No"
                     MethodOID="ADADAS.QSSEQ"/>
            <def:leaf ID="LF.ADADAS" xlink:href="adadas.xpt">
               <def:title>adadas.xpt</def:title>
            </def:leaf>
         </ItemGroupDef>
         <ItemGroupDef OID="IG.ADAE" Name="ADAE" Repeating="Yes" IsReferenceData="No"
                       SASDatasetName="ADAE"
                       Purpose="Analysis"
                       def:Structure="one record per subject per adverse event"
                       def:Class="ADAM OTHER"
                       def:ArchiveLocationID="LF.ADAE">
            <Description>
               <TranslatedText xml:lang="en">Adverse Events Analysis Dataset</TranslatedText>
            </Description>
            <ItemRef ItemOID="IT.ADAE.STUDYID" OrderNumber="1" Mandatory="No"
                     MethodOID="MT.ADAE.STUDYID"/>
            <ItemRef ItemOID="IT.ADAE.SITEID" OrderNumber="2" Mandatory="No"
                     MethodOID="MT.ADAE.SITEID"/>
            <ItemRef ItemOID="IT.ADAE.USUBJID" OrderNumber="3" Mandatory="No" KeySequence="1"
                     MethodOID="MT.ADAE.USUBJID"/>
            <ItemRef ItemOID="IT.ADAE.TRTA" OrderNumber="4" Mandatory="No" MethodOID="MT.ADAE.TRTA"/>
            <ItemRef ItemOID="IT.ADAE.TRTAN" OrderNumber="5" Mandatory="No"
                     MethodOID="MT.ADAE.TRTAN"/>
            <ItemRef ItemOID="IT.ADAE.AGE" OrderNumber="6" Mandatory="No" MethodOID="MT.ADAE.AGE"/>
            <ItemRef ItemOID="IT.ADAE.AGEGR1" OrderNumber="7" Mandatory="No"
                     MethodOID="MT.ADAE.AGEGR1"/>
            <ItemRef ItemOID="IT.ADAE.AGEGR1N" OrderNumber="8" Mandatory="No"
                     MethodOID="MT.ADAE.AGEGR1N"/>
            <ItemRef ItemOID="IT.ADAE.RACE" OrderNumber="9" Mandatory="No" MethodOID="MT.ADAE.RACE"/>
            <ItemRef ItemOID="IT.ADAE.RACEN" OrderNumber="10" Mandatory="No"
                     MethodOID="MT.ADAE.RACEN"/>
            <ItemRef ItemOID="IT.ADAE.SEX" OrderNumber="11" Mandatory="No" MethodOID="MT.ADAE.SEX"/>
            <ItemRef ItemOID="IT.ADAE.SAFFL" OrderNumber="12" Mandatory="No"
                     MethodOID="MT.ADAE.SAFFL"/>
            <ItemRef ItemOID="IT.ADAE.TRTSDT" OrderNumber="13" Mandatory="No"
                     MethodOID="MT.ADAE.TRTSDT"/>
            <ItemRef ItemOID="IT.ADAE.TRTEDT" OrderNumber="14" Mandatory="No"
                     MethodOID="MT.ADAE.TRTEDT"/>
            <ItemRef ItemOID="IT.ADAE.ASTDT" OrderNumber="15" Mandatory="No" KeySequence="3"
                     MethodOID="MT.ADAE.ASTDT"/>
            <ItemRef ItemOID="IT.ADAE.ASTDTF" OrderNumber="16" Mandatory="No"
                     MethodOID="MT.ADAE.ASTDTF"/>
            <ItemRef ItemOID="IT.ADAE.ASTDY" OrderNumber="17" Mandatory="No"
                     MethodOID="MT.ADAE.ASTDY"/>
            <ItemRef ItemOID="IT.ADAE.AENDT" OrderNumber="18" Mandatory="No"
                     MethodOID="MT.ADAE.AENDT"/>
            <ItemRef ItemOID="IT.ADAE.AENDY" OrderNumber="19" Mandatory="No"
                     MethodOID="MT.ADAE.AENDY"/>
            <ItemRef ItemOID="IT.ADAE.ADURN" OrderNumber="20" Mandatory="No"
                     MethodOID="MT.ADAE.ADURN"/>
            <ItemRef ItemOID="IT.ADAE.ADURU" OrderNumber="21" Mandatory="No"
                     MethodOID="MT.ADAE.ADURU"/>
            <ItemRef ItemOID="IT.ADAE.AETERM" OrderNumber="22" Mandatory="No" KeySequence="2"
                     MethodOID="MT.ADAE.AETERM"/>
            <ItemRef ItemOID="IT.ADAE.AELLT" OrderNumber="23" Mandatory="No"
                     MethodOID="MT.ADAE.AELLT"/>
            <ItemRef ItemOID="IT.ADAE.AELLTCD" OrderNumber="24" Mandatory="No"
                     MethodOID="MT.ADAE.AELLTCD"/>
            <ItemRef ItemOID="IT.ADAE.AEDECOD" OrderNumber="25" Mandatory="No"
                     MethodOID="MT.ADAE.AEDECOD"/>
            <ItemRef ItemOID="IT.ADAE.AEPTCD" OrderNumber="26" Mandatory="No"
                     MethodOID="MT.ADAE.AEPTCD"/>
            <ItemRef ItemOID="IT.ADAE.AEHLT" OrderNumber="27" Mandatory="No"
                     MethodOID="MT.ADAE.AEHLT"/>
            <ItemRef ItemOID="IT.ADAE.AEHLTCD" OrderNumber="28" Mandatory="No"
                     MethodOID="MT.ADAE.AEHLTCD"/>
            <ItemRef ItemOID="IT.ADAE.AEHLGT" OrderNumber="29" Mandatory="No"
                     MethodOID="MT.ADAE.AEHLGT"/>
            <ItemRef ItemOID="IT.ADAE.AEHLGTCD" OrderNumber="30" Mandatory="No"
                     MethodOID="MT.ADAE.AEHLGTCD"/>
            <ItemRef ItemOID="IT.ADAE.AEBODSYS" OrderNumber="31" Mandatory="No"
                     MethodOID="MT.ADAE.AEBODSYS"/>
            <ItemRef ItemOID="IT.ADAE.AESOC" OrderNumber="32" Mandatory="No"
                     MethodOID="MT.ADAE.AESOC"/>
            <ItemRef ItemOID="IT.ADAE.AESOCCD" OrderNumber="33" Mandatory="No"
                     MethodOID="MT.ADAE.AESOCCD"/>
            <ItemRef ItemOID="IT.ADAE.AESEV" OrderNumber="34" Mandatory="No"
                     MethodOID="MT.ADAE.AESEV"/>
            <ItemRef ItemOID="IT.ADAE.AESER" OrderNumber="35" Mandatory="No"
                     MethodOID="MT.ADAE.AESER"/>
            <ItemRef ItemOID="IT.ADAE.AESCAN" OrderNumber="36" Mandatory="No"
                     MethodOID="MT.ADAE.AESCAN"/>
            <ItemRef ItemOID="IT.ADAE.AESCONG" OrderNumber="37" Mandatory="No"
                     MethodOID="MT.ADAE.AESCONG"/>
            <ItemRef ItemOID="IT.ADAE.AESDISAB" OrderNumber="38" Mandatory="No"
                     MethodOID="MT.ADAE.AESDISAB"/>
            <ItemRef ItemOID="IT.ADAE.AESDTH" OrderNumber="39" Mandatory="No"
                     MethodOID="MT.ADAE.AESDTH"/>
            <ItemRef ItemOID="IT.ADAE.AESHOSP" OrderNumber="40" Mandatory="No"
                     MethodOID="MT.ADAE.AESHOSP"/>
            <ItemRef ItemOID="IT.ADAE.AESLIFE" OrderNumber="41" Mandatory="No"
                     MethodOID="MT.ADAE.AESLIFE"/>
            <ItemRef ItemOID="IT.ADAE.AESOD" OrderNumber="42" Mandatory="No"
                     MethodOID="MT.ADAE.AESOD"/>
            <ItemRef ItemOID="IT.ADAE.AEREL" OrderNumber="43" Mandatory="No"
                     MethodOID="MT.ADAE.AEREL"/>
            <ItemRef ItemOID="IT.ADAE.AEACN" OrderNumber="44" Mandatory="No"
                     MethodOID="MT.ADAE.AEACN"/>
            <ItemRef ItemOID="IT.ADAE.AEOUT" OrderNumber="45" Mandatory="No"
                     MethodOID="MT.ADAE.AEOUT"/>
            <ItemRef ItemOID="IT.ADAE.AESEQ" OrderNumber="46" Mandatory="No" KeySequence="4"
                     MethodOID="MT.ADAE.AESEQ"/>
            <ItemRef ItemOID="IT.ADAE.TRTEMFL" OrderNumber="47" Mandatory="No"
                     MethodOID="MT.ADAE.TRTEMFL"/>
            <ItemRef ItemOID="IT.ADAE.AOCCFL" OrderNumber="48" Mandatory="No"
                     MethodOID="MT.ADAE.AOCCFL"/>
            <ItemRef ItemOID="IT.ADAE.AOCCSFL" OrderNumber="49" Mandatory="No"
                     MethodOID="MT.ADAE.AOCCSFL"/>
            <ItemRef ItemOID="IT.ADAE.AOCCPFL" OrderNumber="50" Mandatory="No"
                     MethodOID="MT.ADAE.AOCCPFL"/>
            <ItemRef ItemOID="IT.ADAE.AOCC02FL" OrderNumber="51" Mandatory="No"
                     MethodOID="MT.ADAE.AOCC02FL"/>
            <ItemRef ItemOID="IT.ADAE.AOCC03FL" OrderNumber="52" Mandatory="No"
                     MethodOID="MT.ADAE.AOCC03FL"/>
            <ItemRef ItemOID="IT.ADAE.AOCC04FL" OrderNumber="53" Mandatory="No"
                     MethodOID="MT.ADAE.AOCC04FL"/>
            <ItemRef ItemOID="IT.ADAE.CQ01NAM" OrderNumber="54" Mandatory="No"
                     MethodOID="MT.ADAE.CQ01NAM"/>
            <ItemRef ItemOID="IT.ADAE.AOCC01FL" OrderNumber="55" Mandatory="No"
                     MethodOID="MT.ADAE.AOCC01FL"/>
            <def:leaf ID="LF.ADAE" xlink:href="adae.xpt">
               <def:title>adae.xpt</def:title>
            </def:leaf>
         </ItemGroupDef>
         <ItemGroupDef OID="IG.ADCIBC" Name="ADCIBC" Repeating="Yes" IsReferenceData="No"
                       SASDatasetName="ADCIBC"
                       Purpose="Analysis"
                       def:Structure="one record per subject per parameter per analysis visit per analysis date"
                       def:Class="BASIC DATA STRUCTURE"
                       def:ArchiveLocationID="LF.ADCIBC">
            <Description>
               <TranslatedText xml:lang="en">CIBIC+ Analysis</TranslatedText>
            </Description>
            <ItemRef ItemOID="IT.ADCIBC.STUDYID" OrderNumber="1" Mandatory="No"
                     MethodOID="MT.ADQSCIBC.STUDYID"/>
            <ItemRef ItemOID="IT.ADCIBC.SITEID" OrderNumber="2" Mandatory="No"
                     MethodOID="MT.ADQSCIBC.SITEID"/>
            <ItemRef ItemOID="IT.ADCIBC.SITEGR1" OrderNumber="3" Mandatory="No"
                     MethodOID="MT.ADQSCIBC.SITEGR1"/>
            <ItemRef ItemOID="IT.ADCIBC.USUBJID" OrderNumber="4" Mandatory="No" KeySequence="1"
                     MethodOID="MT.ADQSCIBC.USUBJID"/>
            <ItemRef ItemOID="IT.ADCIBC.TRTSDT" OrderNumber="5" Mandatory="No"
                     MethodOID="MT.ADQSCIBC.TRTSDT"/>
            <ItemRef ItemOID="IT.ADCIBC.TRTEDT" OrderNumber="6" Mandatory="No"
                     MethodOID="MT.ADQSCIBC.TRTEDT"/>
            <ItemRef ItemOID="IT.ADCIBC.TRTP" OrderNumber="7" Mandatory="No"
                     MethodOID="MT.ADQSCIBC.TRTP"/>
            <ItemRef ItemOID="IT.ADCIBC.TRTPN" OrderNumber="8" Mandatory="No"
                     MethodOID="MT.ADQSCIBC.TRTPN"/>
            <ItemRef ItemOID="IT.ADCIBC.AGE" OrderNumber="9" Mandatory="No"
                     MethodOID="MT.ADQSCIBC.AGE"/>
            <ItemRef ItemOID="IT.ADCIBC.AGEGR1" OrderNumber="10" Mandatory="No"
                     MethodOID="MT.ADQSCIBC.AGEGR1"/>
            <ItemRef ItemOID="IT.ADCIBC.AGEGR1N" OrderNumber="11" Mandatory="No"
                     MethodOID="MT.ADQSCIBC.AGEGR1N"/>
            <ItemRef ItemOID="IT.ADCIBC.RACE" OrderNumber="12" Mandatory="No"
                     MethodOID="MT.ADQSCIBC.RACE"/>
            <ItemRef ItemOID="IT.ADCIBC.RACEN" OrderNumber="13" Mandatory="No"
                     MethodOID="MT.ADQSCIBC.RACEN"/>
            <ItemRef ItemOID="IT.ADCIBC.SEX" OrderNumber="14" Mandatory="No"
                     MethodOID="MT.ADQSCIBC.SEX"/>
            <ItemRef ItemOID="IT.ADCIBC.ITTFL" OrderNumber="15" Mandatory="No"
                     MethodOID="MT.ADQSCIBC.ITTFL"/>
            <ItemRef ItemOID="IT.ADCIBC.EFFFL" OrderNumber="16" Mandatory="No"
                     MethodOID="MT.ADQSCIBC.EFFFL"/>
            <ItemRef ItemOID="IT.ADCIBC.COMP24FL" OrderNumber="17" Mandatory="No"
                     MethodOID="MT.ADQSCIBC.COMP24FL"/>
            <ItemRef ItemOID="IT.ADCIBC.AVISIT" OrderNumber="18" Mandatory="No" KeySequence="3"
                     MethodOID="MT.ADQSCIBC.AVISIT"/>
            <ItemRef ItemOID="IT.ADCIBC.AVISITN" OrderNumber="19" Mandatory="No"
                     MethodOID="MT.ADQSCIBC.AVISITN"/>
            <ItemRef ItemOID="IT.ADCIBC.VISIT" OrderNumber="20" Mandatory="No"
                     MethodOID="MT.ADQSCIBC.VISIT"/>
            <ItemRef ItemOID="IT.ADCIBC.VISITNUM" OrderNumber="21" Mandatory="No"
                     MethodOID="MT.ADQSCIBC.VISITNUM"/>
            <ItemRef ItemOID="IT.ADCIBC.ADY" OrderNumber="22" Mandatory="No"
                     MethodOID="MT.ADQSCIBC.ADY"/>
            <ItemRef ItemOID="IT.ADCIBC.ADT" OrderNumber="23" Mandatory="No" KeySequence="4"
                     MethodOID="MT.ADQSCIBC.ADT"/>
            <ItemRef ItemOID="IT.ADCIBC.PARAMCD" OrderNumber="24" Mandatory="No" KeySequence="2"
                     MethodOID="MT.ADQSCIBC.PARAMCD"/>
            <ItemRef ItemOID="IT.ADCIBC.PARAM" OrderNumber="25" Mandatory="No"
                     MethodOID="MT.ADQSCIBC.PARAM"/>
            <ItemRef ItemOID="IT.ADCIBC.PARAMN" OrderNumber="26" Mandatory="No"
                     MethodOID="MT.ADQSCIBC.PARAMN"/>
            <ItemRef ItemOID="IT.ADCIBC.AVAL" OrderNumber="27" Mandatory="No"
                     MethodOID="MT.ADQSCIBC.AVAL"/>
            <ItemRef ItemOID="IT.ADCIBC.ANL01FL" OrderNumber="28" Mandatory="No"
                     MethodOID="MT.ADQSCIBC.ANL01FL"/>
            <ItemRef ItemOID="IT.ADCIBC.DTYPE" OrderNumber="29" Mandatory="No"
                     MethodOID="MT.ADQSCIBC.DTYPE"/>
            <ItemRef ItemOID="IT.ADCIBC.AWRANGE" OrderNumber="30" Mandatory="No"
                     MethodOID="MT.ADQSCIBC.AWRANGE"/>
            <ItemRef ItemOID="IT.ADCIBC.AWTARGET" OrderNumber="31" Mandatory="No"
                     MethodOID="MT.ADQSCIBC.AWTARGET"/>
            <ItemRef ItemOID="IT.ADCIBC.AWTDIFF" OrderNumber="32" Mandatory="No"
                     MethodOID="MT.ADQSCIBC.AWTDIFF"/>
            <ItemRef ItemOID="IT.ADCIBC.AWLO" OrderNumber="33" Mandatory="No"
                     MethodOID="MT.ADQSCIBC.AWLO"/>
            <ItemRef ItemOID="IT.ADCIBC.AWHI" OrderNumber="34" Mandatory="No"
                     MethodOID="MT.ADQSCIBC.AWHI"/>
            <ItemRef ItemOID="IT.ADCIBC.AWU" OrderNumber="35" Mandatory="No"
                     MethodOID="MT.ADQSCIBC.AWU"/>
            <ItemRef ItemOID="IT.ADCIBC.QSSEQ" OrderNumber="36" Mandatory="No"
                     MethodOID="MT.ADQSCIBC.QSSEQ"/>
            <def:leaf ID="LF.ADCIBC" xlink:href="adcibc.xpt">
               <def:title>adcibc.xpt</def:title>
            </def:leaf>
         </ItemGroupDef>
         <ItemGroupDef OID="IG.ADLBC" Name="ADLBC" Repeating="Yes" IsReferenceData="No"
                       SASDatasetName="ADLBC"
                       Purpose="Analysis"
                       def:Structure="one record per subject per parameter per analysis visit"
                       def:Class="BASIC DATA STRUCTURE"
                       def:ArchiveLocationID="LF.ADLBC">
            <Description>
               <TranslatedText xml:lang="en">Analysis Dataset Lab Blood Chemistry</TranslatedText>
            </Description>
            <ItemRef ItemOID="IT.ADLBC.STUDYID" OrderNumber="1" Mandatory="No"
                     MethodOID="MT.ADLBC.STUDYID"/>
            <ItemRef ItemOID="IT.ADLBC.SUBJID" OrderNumber="2" Mandatory="No"
                     MethodOID="MT.ADLBC.SUBJID"/>
            <ItemRef ItemOID="IT.ADLBC.USUBJID" OrderNumber="3" Mandatory="No" KeySequence="1"
                     MethodOID="MT.ADLBC.USUBJID"/>
            <ItemRef ItemOID="IT.ADLBC.TRTP" OrderNumber="4" Mandatory="No"
                     MethodOID="MT.ADLBC.TRTP"/>
            <ItemRef ItemOID="IT.ADLBC.TRTPN" OrderNumber="5" Mandatory="No"
                     MethodOID="MT.ADLBC.TRTPN"/>
            <ItemRef ItemOID="IT.ADLBC.TRTA" OrderNumber="6" Mandatory="No"
                     MethodOID="MT.ADLBC.TRTA"/>
            <ItemRef ItemOID="IT.ADLBC.TRTAN" OrderNumber="7" Mandatory="No"
                     MethodOID="MT.ADLBC.TRTAN"/>
            <ItemRef ItemOID="IT.ADLBC.TRTSDT" OrderNumber="8" Mandatory="No"
                     MethodOID="MT.ADLBC.TRTSDT"/>
            <ItemRef ItemOID="IT.ADLBC.TRTEDT" OrderNumber="9" Mandatory="No"
                     MethodOID="MT.ADLBC.TRTEDT"/>
            <ItemRef ItemOID="IT.ADLBC.AGE" OrderNumber="10" Mandatory="No" MethodOID="MT.ADLBC.AGE"/>
            <ItemRef ItemOID="IT.ADLBC.AGEGR1" OrderNumber="11" Mandatory="No"
                     MethodOID="MT.ADLBC.AGEGR1"/>
            <ItemRef ItemOID="IT.ADLBC.AGEGR1N" OrderNumber="12" Mandatory="No"
                     MethodOID="MT.ADLBC.AGEGR1N"/>
            <ItemRef ItemOID="IT.ADLBC.RACE" OrderNumber="13" Mandatory="No"
                     MethodOID="MT.ADLBC.RACE"/>
            <ItemRef ItemOID="IT.ADLBC.RACEN" OrderNumber="14" Mandatory="No"
                     MethodOID="MT.ADLBC.RACEN"/>
            <ItemRef ItemOID="IT.ADLBC.SEX" OrderNumber="15" Mandatory="No" MethodOID="MT.ADLBC.SEX"/>
            <ItemRef ItemOID="IT.ADLBC.COMP24FL" OrderNumber="16" Mandatory="No"
                     MethodOID="MT.ADLBC.COMP24FL"/>
            <ItemRef ItemOID="IT.ADLBC.DSRAEFL" OrderNumber="17" Mandatory="No"
                     MethodOID="MT.ADLBC.DSRAEFL"/>
            <ItemRef ItemOID="IT.ADLBC.SAFFL" OrderNumber="18" Mandatory="No"
                     MethodOID="MT.ADLBC.SAFFL"/>
            <ItemRef ItemOID="IT.ADLBC.AVISIT" OrderNumber="19" Mandatory="No" KeySequence="3"
                     MethodOID="MT.ADLBC.AVISIT"/>
            <ItemRef ItemOID="IT.ADLBC.AVISITN" OrderNumber="20" Mandatory="No"
                     MethodOID="MT.ADLBC.AVISITN"/>
            <ItemRef ItemOID="IT.ADLBC.ADY" OrderNumber="21" Mandatory="No" MethodOID="MT.ADLBC.ADY"/>
            <ItemRef ItemOID="IT.ADLBC.ADT" OrderNumber="22" Mandatory="No" MethodOID="MT.ADLBC.ADT"/>
            <ItemRef ItemOID="IT.ADLBC.VISIT" OrderNumber="23" Mandatory="No"
                     MethodOID="MT.ADLBC.VISIT"/>
            <ItemRef ItemOID="IT.ADLBC.VISITNUM" OrderNumber="24" Mandatory="No"
                     MethodOID="MT.ADLBC.VISITNUM"/>
            <ItemRef ItemOID="IT.ADLBC.PARAM" OrderNumber="25" Mandatory="No"
                     MethodOID="MT.ADLBC.PARAM"/>
            <ItemRef ItemOID="IT.ADLBC.PARAMCD" OrderNumber="26" Mandatory="No" KeySequence="2"
                     MethodOID="MT.ADLBC.PARAMCD"/>
            <ItemRef ItemOID="IT.ADLBC.PARAMN" OrderNumber="27" Mandatory="No"
                     MethodOID="MT.ADLBC.PARAMN"/>
            <ItemRef ItemOID="IT.ADLBC.PARCAT1" OrderNumber="28" Mandatory="No"
                     MethodOID="MT.ADLBC.PARCAT1"/>
            <ItemRef ItemOID="IT.ADLBC.AVAL" OrderNumber="29" Mandatory="No"
                     MethodOID="MT.ADLBC.AVAL"/>
            <ItemRef ItemOID="IT.ADLBC.BASE" OrderNumber="30" Mandatory="No"
                     MethodOID="MT.ADLBC.BASE"/>
            <ItemRef ItemOID="IT.ADLBC.CHG" OrderNumber="31" Mandatory="No"
                     MethodOID="MT.ADLBC.CHG"/>
            <ItemRef ItemOID="IT.ADLBC.A1LO" OrderNumber="32" Mandatory="No"
                     MethodOID="MT.ADLBC.A1LO"/>
            <ItemRef ItemOID="IT.ADLBC.A1HI" OrderNumber="33" Mandatory="No"
                     MethodOID="MT.ADLBC.A1HI"/>
            <ItemRef ItemOID="IT.ADLBC.R2A1LO" OrderNumber="34" Mandatory="No"
                     MethodOID="MT.ADLBC.R2A1LO"/>
            <ItemRef ItemOID="IT.ADLBC.R2A1HI" OrderNumber="35" Mandatory="No"
                     MethodOID="MT.ADLBC.R2A1HI"/>
            <ItemRef ItemOID="IT.ADLBC.BR2A1LO" OrderNumber="36" Mandatory="No"
                     MethodOID="MT.ADLBC.BR2A1LO"/>
            <ItemRef ItemOID="IT.ADLBC.BR2A1HI" OrderNumber="37" Mandatory="No"
                     MethodOID="MT.ADLBC.BR2A1HI"/>
            <ItemRef ItemOID="IT.ADLBC.ANL01FL" OrderNumber="38" Mandatory="No"
                     MethodOID="ADLBC.ANL01FL"/>
            <ItemRef ItemOID="IT.ADLBC.ALBTRVAL" OrderNumber="39" Mandatory="No"
                     MethodOID="MT.ADLBC.ALBTRVAL"/>
            <ItemRef ItemOID="IT.ADLBC.ANRIND" OrderNumber="40" Mandatory="No"
                     MethodOID="ADLBC.ANRIND"/>
            <ItemRef ItemOID="IT.ADLBC.BNRIND" OrderNumber="41" Mandatory="No"
                     MethodOID="ADLBC.BNRIND"/>
            <ItemRef ItemOID="IT.ADLBC.ABLFL" OrderNumber="42" Mandatory="No"
                     MethodOID="ADLBC.ABLFL"/>
            <ItemRef ItemOID="IT.ADLBC.AENTMTFL" OrderNumber="43" Mandatory="No"
                     MethodOID="MT.ADLBC.AENTMTFL"/>
            <ItemRef ItemOID="IT.ADLBC.LBSEQ" OrderNumber="44" Mandatory="No" KeySequence="4"
                     MethodOID="MT.ADLBC.LBSEQ"/>
            <ItemRef ItemOID="IT.ADLBC.LBNRIND" OrderNumber="45" Mandatory="No"
                     MethodOID="MT.ADLBC.LBNRIND"/>
            <ItemRef ItemOID="IT.ADLBC.LBSTRESN" OrderNumber="46" Mandatory="No"
                     MethodOID="MT.ADLBC.LBSTRESN"/>
            <def:leaf ID="LF.ADLBC" xlink:href="adlbc.xpt">
               <def:title>adlbc.xpt</def:title>
            </def:leaf>
         </ItemGroupDef>
         <ItemGroupDef OID="IG.ADLBCPV" Name="ADLBCPV" Repeating="Yes" IsReferenceData="No"
                       SASDatasetName="ADLBCPV"
                       Purpose="Analysis"
                       def:Structure="one record per subject per parameter per analysis visit"
                       def:Class="BASIC DATA STRUCTURE"
                       def:ArchiveLocationID="LF.ADLBCPV">
            <Description>
               <TranslatedText xml:lang="en">Analysis Dataset Lab Blood Chemistry (Previous Visit)</TranslatedText>
            </Description>
            <ItemRef ItemOID="IT.ADLBCPV.STUDYID" OrderNumber="1" Mandatory="No"
                     MethodOID="MT.ADLBCPV.STUDYID"/>
            <ItemRef ItemOID="IT.ADLBCPV.SUBJID" OrderNumber="2" Mandatory="No"
                     MethodOID="MT.ADLBCPV.SUBJID"/>
            <ItemRef ItemOID="IT.ADLBCPV.USUBJID" OrderNumber="3" Mandatory="No" KeySequence="1"
                     MethodOID="MT.ADLBCPV.USUBJID"/>
            <ItemRef ItemOID="IT.ADLBCPV.TRTP" OrderNumber="4" Mandatory="No"
                     MethodOID="MT.ADLBCPV.TRTP"/>
            <ItemRef ItemOID="IT.ADLBCPV.TRTPN" OrderNumber="5" Mandatory="No"
                     MethodOID="MT.ADLBCPV.TRTPN"/>
            <ItemRef ItemOID="IT.ADLBCPV.TRTA" OrderNumber="6" Mandatory="No"
                     MethodOID="MT.ADLBCPV.TRTA"/>
            <ItemRef ItemOID="IT.ADLBCPV.TRTAN" OrderNumber="7" Mandatory="No"
                     MethodOID="MT.ADLBCPV.TRTAN"/>
            <ItemRef ItemOID="IT.ADLBCPV.TRTSDT" OrderNumber="8" Mandatory="No"
                     MethodOID="MT.ADLBCPV.TRTSDT"/>
            <ItemRef ItemOID="IT.ADLBCPV.TRTEDT" OrderNumber="9" Mandatory="No"
                     MethodOID="MT.ADLBCPV.TRTEDT"/>
            <ItemRef ItemOID="IT.ADLBCPV.AGE" OrderNumber="10" Mandatory="No"
                     MethodOID="MT.ADLBCPV.AGE"/>
            <ItemRef ItemOID="IT.ADLBCPV.AGEGR1" OrderNumber="11" Mandatory="No"
                     MethodOID="MT.ADLBCPV.AGEGR1"/>
            <ItemRef ItemOID="IT.ADLBCPV.AGEGR1N" OrderNumber="12" Mandatory="No"
                     MethodOID="MT.ADLBCPV.AGEGR1N"/>
            <ItemRef ItemOID="IT.ADLBCPV.RACE" OrderNumber="13" Mandatory="No"
                     MethodOID="MT.ADLBCPV.RACE"/>
            <ItemRef ItemOID="IT.ADLBCPV.RACEN" OrderNumber="14" Mandatory="No"
                     MethodOID="MT.ADLBCPV.RACEN"/>
            <ItemRef ItemOID="IT.ADLBCPV.SEX" OrderNumber="15" Mandatory="No"
                     MethodOID="MT.ADLBCPV.SEX"/>
            <ItemRef ItemOID="IT.ADLBCPV.COMP24FL" OrderNumber="16" Mandatory="No"
                     MethodOID="MT.ADLBCPV.COMP24FL"/>
            <ItemRef ItemOID="IT.ADLBCPV.DSRAEFL" OrderNumber="17" Mandatory="No"
                     MethodOID="MT.ADLBCPV.DSRAEFL"/>
            <ItemRef ItemOID="IT.ADLBCPV.SAFFL" OrderNumber="18" Mandatory="No"
                     MethodOID="MT.ADLBCPV.SAFFL"/>
            <ItemRef ItemOID="IT.ADLBCPV.AVISIT" OrderNumber="19" Mandatory="No" KeySequence="3"
                     MethodOID="MT.ADLBCPV.AVISIT"/>
            <ItemRef ItemOID="IT.ADLBCPV.AVISITN" OrderNumber="20" Mandatory="No"
                     MethodOID="MT.ADLBCPV.AVISITN"/>
            <ItemRef ItemOID="IT.ADLBCPV.ADY" OrderNumber="21" Mandatory="No"
                     MethodOID="MT.ADLBCPV.ADY"/>
            <ItemRef ItemOID="IT.ADLBCPV.ADT" OrderNumber="22" Mandatory="No"
                     MethodOID="MT.ADLBCPV.ADT"/>
            <ItemRef ItemOID="IT.ADLBCPV.VISIT" OrderNumber="23" Mandatory="No"
                     MethodOID="MT.ADLBCPV.VISIT"/>
            <ItemRef ItemOID="IT.ADLBCPV.VISITNUM" OrderNumber="24" Mandatory="No"
                     MethodOID="MT.ADLBCPV.VISITNUM"/>
            <ItemRef ItemOID="IT.ADLBCPV.PARAM" OrderNumber="25" Mandatory="No"
                     MethodOID="MT.ADLBCPV.PARAM"/>
            <ItemRef ItemOID="IT.ADLBCPV.PARAMCD" OrderNumber="26" Mandatory="No" KeySequence="2"
                     MethodOID="MT.ADLBCPV.PARAMCD"/>
            <ItemRef ItemOID="IT.ADLBCPV.PARAMN" OrderNumber="27" Mandatory="No"
                     MethodOID="MT.ADLBCPV.PARAMN"/>
            <ItemRef ItemOID="IT.ADLBCPV.PARCAT1" OrderNumber="28" Mandatory="No"
                     MethodOID="MT.ADLBCPV.PARCAT1"/>
            <ItemRef ItemOID="IT.ADLBCPV.AVAL" OrderNumber="29" Mandatory="No"
                     MethodOID="ADLBCPV.AVAL"/>
            <ItemRef ItemOID="IT.ADLBCPV.BASE" OrderNumber="30" Mandatory="No"
                     MethodOID="ADLBCPV.BASE"/>
            <ItemRef ItemOID="IT.ADLBCPV.CHG" OrderNumber="31" Mandatory="No"
                     MethodOID="ADLBCPV.CHG"/>
            <ItemRef ItemOID="IT.ADLBCPV.A1LO" OrderNumber="32" Mandatory="No"
                     MethodOID="MT.ADLBCPV.A1LO"/>
            <ItemRef ItemOID="IT.ADLBCPV.A1HI" OrderNumber="33" Mandatory="No"
                     MethodOID="MT.ADLBCPV.A1HI"/>
            <ItemRef ItemOID="IT.ADLBCPV.R2A1LO" OrderNumber="34" Mandatory="No"
                     MethodOID="MT.ADLBCPV.R2A1LO"/>
            <ItemRef ItemOID="IT.ADLBCPV.R2A1HI" OrderNumber="35" Mandatory="No"
                     MethodOID="MT.ADLBCPV.R2A1HI"/>
            <ItemRef ItemOID="IT.ADLBCPV.BR2A1LO" OrderNumber="36" Mandatory="No"
                     MethodOID="MT.ADLBCPV.BR2A1LO"/>
            <ItemRef ItemOID="IT.ADLBCPV.BR2A1HI" OrderNumber="37" Mandatory="No"
                     MethodOID="MT.ADLBCPV.BR2A1HI"/>
            <ItemRef ItemOID="IT.ADLBCPV.ANL01FL" OrderNumber="38" Mandatory="No"
                     MethodOID="ADLBCPV.ANL01FL"/>
            <ItemRef ItemOID="IT.ADLBCPV.ALBTRVAL" OrderNumber="39" Mandatory="No"
                     MethodOID="MT.ADLBCPV.ALBTRVAL"/>
            <ItemRef ItemOID="IT.ADLBCPV.ANRIND" OrderNumber="40" Mandatory="No"
                     MethodOID="ADLBCPV.ANRIND"/>
            <ItemRef ItemOID="IT.ADLBCPV.BNRIND" OrderNumber="41" Mandatory="No"
                     MethodOID="ADLBCPV.BNRIND"/>
            <ItemRef ItemOID="IT.ADLBCPV.ABLFL" OrderNumber="42" Mandatory="No"
                     MethodOID="ADLBCPV.ABLFL"/>
            <ItemRef ItemOID="IT.ADLBCPV.AENTMTFL" OrderNumber="43" Mandatory="No"
                     MethodOID="MT.ADLBCPV.AENTMTFL"/>
            <ItemRef ItemOID="IT.ADLBCPV.LBSEQ" OrderNumber="44" Mandatory="No" KeySequence="4"
                     MethodOID="MT.ADLBCPV.LBSEQ"/>
            <ItemRef ItemOID="IT.ADLBCPV.LBNRIND" OrderNumber="45" Mandatory="No"
                     MethodOID="MT.ADLBCPV.LBNRIND"/>
            <ItemRef ItemOID="IT.ADLBCPV.LBSTRESN" OrderNumber="46" Mandatory="No"
                     MethodOID="MT.ADLBCPV.LBSTRESN"/>
            <def:leaf ID="LF.ADLBCPV" xlink:href="adlbcpv.xpt">
               <def:title>adlbcpv.xpt</def:title>
            </def:leaf>
         </ItemGroupDef>
         <ItemGroupDef OID="IG.ADLBH" Name="ADLBH" Repeating="Yes" IsReferenceData="No"
                       SASDatasetName="ADLBH"
                       Purpose="Analysis"
                       def:Structure="one record per subject per parameter per analysis visit"
                       def:Class="BASIC DATA STRUCTURE"
                       def:ArchiveLocationID="LF.ADLBH">
            <Description>
               <TranslatedText xml:lang="en">Analysis Dataset Lab Hematology</TranslatedText>
            </Description>
            <ItemRef ItemOID="IT.ADLBH.STUDYID" OrderNumber="1" Mandatory="No"
                     MethodOID="MT.ADLBH.STUDYID"/>
            <ItemRef ItemOID="IT.ADLBH.SUBJID" OrderNumber="2" Mandatory="No"
                     MethodOID="MT.ADLBH.SUBJID"/>
            <ItemRef ItemOID="IT.ADLBH.USUBJID" OrderNumber="3" Mandatory="No" KeySequence="1"
                     MethodOID="MT.ADLBH.USUBJID"/>
            <ItemRef ItemOID="IT.ADLBH.TRTP" OrderNumber="4" Mandatory="No"
                     MethodOID="MT.ADLBH.TRTP"/>
            <ItemRef ItemOID="IT.ADLBH.TRTPN" OrderNumber="5" Mandatory="No"
                     MethodOID="MT.ADLBH.TRTPN"/>
            <ItemRef ItemOID="IT.ADLBH.TRTA" OrderNumber="6" Mandatory="No"
                     MethodOID="MT.ADLBH.TRTA"/>
            <ItemRef ItemOID="IT.ADLBH.TRTAN" OrderNumber="7" Mandatory="No"
                     MethodOID="MT.ADLBH.TRTAN"/>
            <ItemRef ItemOID="IT.ADLBH.TRTSDT" OrderNumber="8" Mandatory="No"
                     MethodOID="MT.ADLBH.TRTSDT"/>
            <ItemRef ItemOID="IT.ADLBH.TRTEDT" OrderNumber="9" Mandatory="No"
                     MethodOID="MT.ADLBH.TRTEDT"/>
            <ItemRef ItemOID="IT.ADLBH.AGE" OrderNumber="10" Mandatory="No" MethodOID="MT.ADLBH.AGE"/>
            <ItemRef ItemOID="IT.ADLBH.AGEGR1" OrderNumber="11" Mandatory="No"
                     MethodOID="MT.ADLBH.AGEGR1"/>
            <ItemRef ItemOID="IT.ADLBH.AGEGR1N" OrderNumber="12" Mandatory="No"
                     MethodOID="MT.ADLBH.AGEGR1N"/>
            <ItemRef ItemOID="IT.ADLBH.RACE" OrderNumber="13" Mandatory="No"
                     MethodOID="MT.ADLBH.RACE"/>
            <ItemRef ItemOID="IT.ADLBH.RACEN" OrderNumber="14" Mandatory="No"
                     MethodOID="MT.ADLBH.RACEN"/>
            <ItemRef ItemOID="IT.ADLBH.SEX" OrderNumber="15" Mandatory="No" MethodOID="MT.ADLBH.SEX"/>
            <ItemRef ItemOID="IT.ADLBH.COMP24FL" OrderNumber="16" Mandatory="No"
                     MethodOID="MT.ADLBH.COMP24FL"/>
            <ItemRef ItemOID="IT.ADLBH.DSRAEFL" OrderNumber="17" Mandatory="No"
                     MethodOID="MT.ADLBH.DSRAEFL"/>
            <ItemRef ItemOID="IT.ADLBH.SAFFL" OrderNumber="18" Mandatory="No"
                     MethodOID="MT.ADLBH.SAFFL"/>
            <ItemRef ItemOID="IT.ADLBH.AVISIT" OrderNumber="19" Mandatory="No" KeySequence="3"
                     MethodOID="MT.ADLBH.AVISIT"/>
            <ItemRef ItemOID="IT.ADLBH.AVISITN" OrderNumber="20" Mandatory="No"
                     MethodOID="MT.ADLBH.AVISITN"/>
            <ItemRef ItemOID="IT.ADLBH.ADY" OrderNumber="21" Mandatory="No" MethodOID="MT.ADLBH.ADY"/>
            <ItemRef ItemOID="IT.ADLBH.ADT" OrderNumber="22" Mandatory="No" MethodOID="MT.ADLBH.ADT"/>
            <ItemRef ItemOID="IT.ADLBH.VISIT" OrderNumber="23" Mandatory="No"
                     MethodOID="MT.ADLBH.VISIT"/>
            <ItemRef ItemOID="IT.ADLBH.VISITNUM" OrderNumber="24" Mandatory="No"
                     MethodOID="MT.ADLBH.VISITNUM"/>
            <ItemRef ItemOID="IT.ADLBH.PARAM" OrderNumber="25" Mandatory="No"
                     MethodOID="MT.ADLBH.PARAM"/>
            <ItemRef ItemOID="IT.ADLBH.PARAMCD" OrderNumber="26" Mandatory="No" KeySequence="2"
                     MethodOID="MT.ADLBH.PARAMCD"/>
            <ItemRef ItemOID="IT.ADLBH.PARAMN" OrderNumber="27" Mandatory="No"
                     MethodOID="MT.ADLBH.PARAMN"/>
            <ItemRef ItemOID="IT.ADLBH.PARCAT1" OrderNumber="28" Mandatory="No"
                     MethodOID="MT.ADLBH.PARCAT1"/>
            <ItemRef ItemOID="IT.ADLBH.AVAL" OrderNumber="29" Mandatory="No"
                     MethodOID="ADLBH.AVAL"/>
            <ItemRef ItemOID="IT.ADLBH.BASE" OrderNumber="30" Mandatory="No"
                     MethodOID="ADLBH.BASE"/>
            <ItemRef ItemOID="IT.ADLBH.CHG" OrderNumber="31" Mandatory="No"
                     MethodOID="ADLBH.CHG"/>
            <ItemRef ItemOID="IT.ADLBH.A1LO" OrderNumber="32" Mandatory="No"
                     MethodOID="ADLBH.A1LO"/>
            <ItemRef ItemOID="IT.ADLBH.A1HI" OrderNumber="33" Mandatory="No"
                     MethodOID="MT.ADLBH.A1HI"/>
            <ItemRef ItemOID="IT.ADLBH.R2A1LO" OrderNumber="34" Mandatory="No"
                     MethodOID="MT.ADLBH.R2A1LO"/>
            <ItemRef ItemOID="IT.ADLBH.R2A1HI" OrderNumber="35" Mandatory="No"
                     MethodOID="MT.ADLBH.R2A1HI"/>
            <ItemRef ItemOID="IT.ADLBH.BR2A1LO" OrderNumber="36" Mandatory="No"
                     MethodOID="MT.ADLBH.BR2A1LO"/>
            <ItemRef ItemOID="IT.ADLBH.BR2A1HI" OrderNumber="37" Mandatory="No"
                     MethodOID="MT.ADLBH.BR2A1HI"/>
            <ItemRef ItemOID="IT.ADLBH.ANL01FL" OrderNumber="38" Mandatory="No"
                     MethodOID="ADLBH.ANL01FL"/>
            <ItemRef ItemOID="IT.ADLBH.ALBTRVAL" OrderNumber="39" Mandatory="No"
                     MethodOID="MT.ADLBH.ALBTRVAL"/>
            <ItemRef ItemOID="IT.ADLBH.ANRIND" OrderNumber="40" Mandatory="No"
                     MethodOID="ADLBH.ANRIND"/>
            <ItemRef ItemOID="IT.ADLBH.BNRIND" OrderNumber="41" Mandatory="No"
                     MethodOID="ADLBH.BNRIND"/>
            <ItemRef ItemOID="IT.ADLBH.ABLFL" OrderNumber="42" Mandatory="No"
                     MethodOID="ADLBH.ABLFL"/>
            <ItemRef ItemOID="IT.ADLBH.AENTMTFL" OrderNumber="43" Mandatory="No"
                     MethodOID="MT.ADLBH.AENTMTFL"/>
            <ItemRef ItemOID="IT.ADLBH.LBSEQ" OrderNumber="44" Mandatory="No" KeySequence="4"
                     MethodOID="MT.ADLBH.LBSEQ"/>
            <ItemRef ItemOID="IT.ADLBH.LBNRIND" OrderNumber="45" Mandatory="No"
                     MethodOID="MT.ADLBH.LBNRIND"/>
            <ItemRef ItemOID="IT.ADLBH.LBSTRESN" OrderNumber="46" Mandatory="No"
                     MethodOID="MT.ADLBH.LBSTRESN"/>
            <def:leaf ID="LF.ADLBH" xlink:href="adlbh.xpt">
               <def:title>adlbh.xpt</def:title>
            </def:leaf>
         </ItemGroupDef>
         <ItemGroupDef OID="IG.ADLBHPV" Name="ADLBHPV" Repeating="Yes" IsReferenceData="No"
                       SASDatasetName="ADLBHPV"
                       Purpose="Analysis"
                       def:Structure="one record per subject per parameter per analysis visit"
                       def:Class="BASIC DATA STRUCTURE"
                       def:ArchiveLocationID="LF.ADLBHPV">
            <Description>
               <TranslatedText xml:lang="en">Analysis Dataset Lab Hematology (Previous Visit)</TranslatedText>
            </Description>
            <ItemRef ItemOID="IT.ADLBHPV.STUDYID" OrderNumber="1" Mandatory="No"
                     MethodOID="MT.ADLBHPV.STUDYID"/>
            <ItemRef ItemOID="IT.ADLBHPV.SUBJID" OrderNumber="2" Mandatory="No"
                     MethodOID="MT.ADLBHPV.SUBJID"/>
            <ItemRef ItemOID="IT.ADLBHPV.USUBJID" OrderNumber="3" Mandatory="No" KeySequence="1"
                     MethodOID="MT.ADLBHPV.USUBJID"/>
            <ItemRef ItemOID="IT.ADLBHPV.TRTP" OrderNumber="4" Mandatory="No"
                     MethodOID="MT.ADLBHPV.TRTP"/>
            <ItemRef ItemOID="IT.ADLBHPV.TRTPN" OrderNumber="5" Mandatory="No"
                     MethodOID="MT.ADLBHPV.TRTPN"/>
            <ItemRef ItemOID="IT.ADLBHPV.TRTA" OrderNumber="6" Mandatory="No"
                     MethodOID="MT.ADLBHPV.TRTA"/>
            <ItemRef ItemOID="IT.ADLBHPV.TRTAN" OrderNumber="7" Mandatory="No"
                     MethodOID="MT.ADLBHPV.TRTAN"/>
            <ItemRef ItemOID="IT.ADLBHPV.TRTSDT" OrderNumber="8" Mandatory="No"
                     MethodOID="MT.ADLBHPV.TRTSDT"/>
            <ItemRef ItemOID="IT.ADLBHPV.TRTEDT" OrderNumber="9" Mandatory="No"
                     MethodOID="MT.ADLBHPV.TRTEDT"/>
            <ItemRef ItemOID="IT.ADLBHPV.AGE" OrderNumber="10" Mandatory="No"
                     MethodOID="MT.ADLBHPV.AGE"/>
            <ItemRef ItemOID="IT.ADLBHPV.AGEGR1" OrderNumber="11" Mandatory="No"
                     MethodOID="MT.ADLBHPV.AGEGR1"/>
            <ItemRef ItemOID="IT.ADLBHPV.AGEGR1N" OrderNumber="12" Mandatory="No"
                     MethodOID="MT.ADLBHPV.AGEGR1N"/>
            <ItemRef ItemOID="IT.ADLBHPV.RACE" OrderNumber="13" Mandatory="No"
                     MethodOID="MT.ADLBHPV.RACE"/>
            <ItemRef ItemOID="IT.ADLBHPV.RACEN" OrderNumber="14" Mandatory="No"
                     MethodOID="MT.ADLBHPV.RACEN"/>
            <ItemRef ItemOID="IT.ADLBHPV.SEX" OrderNumber="15" Mandatory="No"
                     MethodOID="MT.ADLBHPV.SEX"/>
            <ItemRef ItemOID="IT.ADLBHPV.COMP24FL" OrderNumber="16" Mandatory="No"
                     MethodOID="MT.ADLBHPV.COMP24FL"/>
            <ItemRef ItemOID="IT.ADLBHPV.DSRAEFL" OrderNumber="17" Mandatory="No"
                     MethodOID="MT.ADLBHPV.DSRAEFL"/>
            <ItemRef ItemOID="IT.ADLBHPV.SAFFL" OrderNumber="18" Mandatory="No"
                     MethodOID="MT.ADLBHPV.SAFFL"/>
            <ItemRef ItemOID="IT.ADLBHPV.AVISIT" OrderNumber="19" Mandatory="No" KeySequence="3"
                     MethodOID="MT.ADLBHPV.AVISIT"/>
            <ItemRef ItemOID="IT.ADLBHPV.AVISITN" OrderNumber="20" Mandatory="No"
                     MethodOID="MT.ADLBHPV.AVISITN"/>
            <ItemRef ItemOID="IT.ADLBHPV.ADY" OrderNumber="21" Mandatory="No"
                     MethodOID="MT.ADLBHPV.ADY"/>
            <ItemRef ItemOID="IT.ADLBHPV.ADT" OrderNumber="22" Mandatory="No"
                     MethodOID="MT.ADLBHPV.ADT"/>
            <ItemRef ItemOID="IT.ADLBHPV.VISIT" OrderNumber="23" Mandatory="No"
                     MethodOID="MT.ADLBHPV.VISIT"/>
            <ItemRef ItemOID="IT.ADLBHPV.VISITNUM" OrderNumber="24" Mandatory="No"
                     MethodOID="MT.ADLBHPV.VISITNUM"/>
            <ItemRef ItemOID="IT.ADLBHPV.PARAM" OrderNumber="25" Mandatory="No"
                     MethodOID="MT.ADLBHPV.PARAM"/>
            <ItemRef ItemOID="IT.ADLBHPV.PARAMCD" OrderNumber="26" Mandatory="No" KeySequence="2"
                     MethodOID="MT.ADLBHPV.PARAMCD"/>
            <ItemRef ItemOID="IT.ADLBHPV.PARAMN" OrderNumber="27" Mandatory="No"
                     MethodOID="MT.ADLBHPV.PARAMN"/>
            <ItemRef ItemOID="IT.ADLBHPV.PARCAT1" OrderNumber="28" Mandatory="No"
                     MethodOID="MT.ADLBHPV.PARCAT1"/>
            <ItemRef ItemOID="IT.ADLBHPV.AVAL" OrderNumber="29" Mandatory="No"
                     MethodOID="ADLBHPV.AVAL"/>
            <ItemRef ItemOID="IT.ADLBHPV.BASE" OrderNumber="30" Mandatory="No"
                     MethodOID="ADLBHPV.BASE"/>
            <ItemRef ItemOID="IT.ADLBHPV.CHG" OrderNumber="31" Mandatory="No"
                     MethodOID="ADLBHPV.CHG"/>
            <ItemRef ItemOID="IT.ADLBHPV.A1LO" OrderNumber="32" Mandatory="No"
                     MethodOID="ADLBHPV.A1LO"/>
            <ItemRef ItemOID="IT.ADLBHPV.A1HI" OrderNumber="33" Mandatory="No"
                     MethodOID="MT.ADLBHPV.A1HI"/>
            <ItemRef ItemOID="IT.ADLBHPV.R2A1LO" OrderNumber="34" Mandatory="No"
                     MethodOID="MT.ADLBHPV.R2A1LO"/>
            <ItemRef ItemOID="IT.ADLBHPV.R2A1HI" OrderNumber="35" Mandatory="No"
                     MethodOID="MT.ADLBHPV.R2A1HI"/>
            <ItemRef ItemOID="IT.ADLBHPV.BR2A1LO" OrderNumber="36" Mandatory="No"
                     MethodOID="MT.ADLBHPV.BR2A1LO"/>
            <ItemRef ItemOID="IT.ADLBHPV.BR2A1HI" OrderNumber="37" Mandatory="No"
                     MethodOID="MT.ADLBHPV.BR2A1HI"/>
            <ItemRef ItemOID="IT.ADLBHPV.ANL01FL" OrderNumber="38" Mandatory="No"
                     MethodOID="MT.ADLBHPV.ANL01FL"/>
            <ItemRef ItemOID="IT.ADLBHPV.ALBTRVAL" OrderNumber="39" Mandatory="No"
                     MethodOID="MT.ADLBHPV.ALBTRVAL"/>
            <ItemRef ItemOID="IT.ADLBHPV.ANRIND" OrderNumber="40" Mandatory="No"
                     MethodOID="ADLBHPV.ANRIND"/>
            <ItemRef ItemOID="IT.ADLBHPV.BNRIND" OrderNumber="41" Mandatory="No"
                     MethodOID="ADLBHPV.BNRIND"/>
            <ItemRef ItemOID="IT.ADLBHPV.ABLFL" OrderNumber="42" Mandatory="No"
                     MethodOID="ADLBHPV.ABLFL"/>
            <ItemRef ItemOID="IT.ADLBHPV.AENTMTFL" OrderNumber="43" Mandatory="No"
                     MethodOID="MT.ADLBHPV.AENTMTFL"/>
            <ItemRef ItemOID="IT.ADLBHPV.LBSEQ" OrderNumber="44" Mandatory="No" KeySequence="4"
                     MethodOID="MT.ADLBHPV.LBSEQ"/>
            <ItemRef ItemOID="IT.ADLBHPV.LBNRIND" OrderNumber="45" Mandatory="No"
                     MethodOID="MT.ADLBHPV.LBNRIND"/>
            <ItemRef ItemOID="IT.ADLBHPV.LBSTRESN" OrderNumber="46" Mandatory="No"
                     MethodOID="MT.ADLBHPV.LBSTRESN"/>
            <def:leaf ID="LF.ADLBHPV" xlink:href="adlbhpv.xpt">
               <def:title>adlbhpv.xpt</def:title>
            </def:leaf>
         </ItemGroupDef>
         <ItemGroupDef OID="IG.ADLBHY" Name="ADLBHY" Repeating="Yes" IsReferenceData="No"
                       SASDatasetName="ADLBHY"
                       Purpose="Analysis"
                       def:Structure="one record per subject per parameter per analysis visit"
                       def:Class="BASIC DATA STRUCTURE"
                       def:ArchiveLocationID="LF.ADLBHY">
            <Description>
               <TranslatedText xml:lang="en">Analysis Dataset Lab Hy's Law</TranslatedText>
            </Description>
            <ItemRef ItemOID="IT.ADLBHY.STUDYID" OrderNumber="1" Mandatory="No"
                     MethodOID="MT.ADLBHY.STUDYID"/>
            <ItemRef ItemOID="IT.ADLBHY.SUBJID" OrderNumber="2" Mandatory="No"
                     MethodOID="MT.ADLBHY.SUBJID"/>
            <ItemRef ItemOID="IT.ADLBHY.USUBJID" OrderNumber="3" Mandatory="No" KeySequence="1"
                     MethodOID="MT.ADLBHY.USUBJID"/>
            <ItemRef ItemOID="IT.ADLBHY.TRTP" OrderNumber="4" Mandatory="No"
                     MethodOID="MT.ADLBHY.TRTP"/>
            <ItemRef ItemOID="IT.ADLBHY.TRTPN" OrderNumber="5" Mandatory="No"
                     MethodOID="MT.ADLBHY.TRTPN"/>
            <ItemRef ItemOID="IT.ADLBHY.TRTA" OrderNumber="6" Mandatory="No"
                     MethodOID="MT.ADLBHY.TRTA"/>
            <ItemRef ItemOID="IT.ADLBHY.TRTAN" OrderNumber="7" Mandatory="No"
                     MethodOID="MT.ADLBHY.TRTAN"/>
            <ItemRef ItemOID="IT.ADLBHY.TRTSDT" OrderNumber="8" Mandatory="No"
                     MethodOID="MT.ADLBHY.TRTSDT"/>
            <ItemRef ItemOID="IT.ADLBHY.TRTEDT" OrderNumber="9" Mandatory="No"
                     MethodOID="MT.ADLBHY.TRTEDT"/>
            <ItemRef ItemOID="IT.ADLBHY.AGE" OrderNumber="10" Mandatory="No"
                     MethodOID="MT.ADLBHY.AGE"/>
            <ItemRef ItemOID="IT.ADLBHY.AGEGR1" OrderNumber="11" Mandatory="No"
                     MethodOID="MT.ADLBHY.AGEGR1"/>
            <ItemRef ItemOID="IT.ADLBHY.AGEGR1N" OrderNumber="12" Mandatory="No"
                     MethodOID="MT.ADLBHY.AGEGR1N"/>
            <ItemRef ItemOID="IT.ADLBHY.RACE" OrderNumber="13" Mandatory="No"
                     MethodOID="MT.ADLBHY.RACE"/>
            <ItemRef ItemOID="IT.ADLBHY.RACEN" OrderNumber="14" Mandatory="No"
                     MethodOID="MT.ADLBHY.RACEN"/>
            <ItemRef ItemOID="IT.ADLBHY.SEX" OrderNumber="15" Mandatory="No"
                     MethodOID="MT.ADLBHY.SEX"/>
            <ItemRef ItemOID="IT.ADLBHY.COMP24FL" OrderNumber="16" Mandatory="No"
                     MethodOID="MT.ADLBHY.COMP24FL"/>
            <ItemRef ItemOID="IT.ADLBHY.DSRAEFL" OrderNumber="17" Mandatory="No"
                     MethodOID="MT.ADLBHY.DSRAEFL"/>
            <ItemRef ItemOID="IT.ADLBHY.SAFFL" OrderNumber="18" Mandatory="No"
                     MethodOID="MT.ADLBHY.SAFFL"/>
            <ItemRef ItemOID="IT.ADLBHY.AVISIT" OrderNumber="19" Mandatory="No" KeySequence="3"
                     MethodOID="MT.ADLBHY.AVISIT"/>
            <ItemRef ItemOID="IT.ADLBHY.AVISITN" OrderNumber="20" Mandatory="No"
                     MethodOID="MT.ADLBHY.AVISITN"/>
            <ItemRef ItemOID="IT.ADLBHY.ADY" OrderNumber="21" Mandatory="No"
                     MethodOID="MT.ADLBHY.ADY"/>
            <ItemRef ItemOID="IT.ADLBHY.ADT" OrderNumber="22" Mandatory="No"
                     MethodOID="MT.ADLBHY.ADT"/>
            <ItemRef ItemOID="IT.ADLBHY.VISIT" OrderNumber="23" Mandatory="No"
                     MethodOID="MT.ADLBHY.VISIT"/>
            <ItemRef ItemOID="IT.ADLBHY.VISITNUM" OrderNumber="24" Mandatory="No"
                     MethodOID="MT.ADLBHY.VISITNUM"/>
            <ItemRef ItemOID="IT.ADLBHY.PARAMTYP" OrderNumber="25" Mandatory="No"
                     MethodOID="MT.ADLBHY.PARAMTYP"/>
            <ItemRef ItemOID="IT.ADLBHY.PARAM" OrderNumber="26" Mandatory="No"
                     MethodOID="MT.ADLBHY.PARAM"/>
            <ItemRef ItemOID="IT.ADLBHY.PARAMCD" OrderNumber="27" Mandatory="No" KeySequence="2"
                     MethodOID="ADLBHY.PARAMCD"/>
            <ItemRef ItemOID="IT.ADLBHY.PARAMN" OrderNumber="28" Mandatory="No"
                     MethodOID="MT.ADLBHY.PARAMN"/>
            <ItemRef ItemOID="IT.ADLBHY.PARCAT1" OrderNumber="29" Mandatory="No"
                     MethodOID="ADLBHY.PARCAT1"/>
            <ItemRef ItemOID="IT.ADLBHY.AVAL" OrderNumber="30" Mandatory="No"
                     MethodOID="ADLBHY.AVAL"/>
            <ItemRef ItemOID="IT.ADLBHY.BASE" OrderNumber="31" Mandatory="No"
                     MethodOID="ADLBHY.BASE"/>
            <ItemRef ItemOID="IT.ADLBHY.A1LO" OrderNumber="32" Mandatory="No"
                     MethodOID="ADLBHY.A1LO"/>
            <ItemRef ItemOID="IT.ADLBHY.A1HI" OrderNumber="33" Mandatory="No"
                     MethodOID="ADLBHY.A1HI"/>
            <ItemRef ItemOID="IT.ADLBHY.R2A1LO" OrderNumber="34" Mandatory="No"
                     MethodOID="ADLBHY.R2A1LO"/>
            <ItemRef ItemOID="IT.ADLBHY.R2A1HI" OrderNumber="35" Mandatory="No"
                     MethodOID="ADLBHY.R2A1HI"/>
            <ItemRef ItemOID="IT.ADLBHY.BR2A1LO" OrderNumber="36" Mandatory="No"
                     MethodOID="ADLBHY.BR2A1LO"/>
            <ItemRef ItemOID="IT.ADLBHY.BR2A1HI" OrderNumber="37" Mandatory="No"
                     MethodOID="ADLBHY.BR2A1HI"/>
            <ItemRef ItemOID="IT.ADLBHY.ABLFL" OrderNumber="38" Mandatory="No"
                     MethodOID="MT.ADLBHY.ABLFL"/>
            <ItemRef ItemOID="IT.ADLBHY.SHIFT1" OrderNumber="39" Mandatory="No"
                     MethodOID="ADLBHY.SHIFT1"/>
            <ItemRef ItemOID="IT.ADLBHY.SHIFT1N" OrderNumber="40" Mandatory="No"
                     MethodOID="MT.ADLBHY.SHIFT1N"/>
            <ItemRef ItemOID="IT.ADLBHY.CRIT1" OrderNumber="41" Mandatory="No"
                     MethodOID="ADLBHY.CRIT1"/>
            <ItemRef ItemOID="IT.ADLBHY.CRIT1FL" OrderNumber="42" Mandatory="No"
                     MethodOID="ADLBHY.CRIT1FL"/>
            <ItemRef ItemOID="IT.ADLBHY.CRIT1FN" OrderNumber="43" Mandatory="No"
                     MethodOID="MT.ADLBHY.CRIT1FN"/>
            <def:leaf ID="LF.ADLBHY" xlink:href="adlbhy.xpt">
               <def:title>adlbhy.xpt</def:title>
            </def:leaf>
         </ItemGroupDef>
         <ItemGroupDef OID="IG.ADNPIX" Name="ADNPIX" Repeating="Yes" IsReferenceData="No"
                       SASDatasetName="ADNPIX"
                       Purpose="Analysis"
                       def:Structure="one record per subject per parameter per analysis visit per analysis date"
                       def:Class="BASIC DATA STRUCTURE"
                       def:ArchiveLocationID="LF.ADNPIX">
            <Description>
               <TranslatedText xml:lang="en">NPI-X Item Analysis Data</TranslatedText>
            </Description>
            <ItemRef ItemOID="IT.ADNPIX.STUDYID" OrderNumber="1" Mandatory="No"
                     MethodOID="MT.ADQSNPIX.STUDYID"/>
            <ItemRef ItemOID="IT.ADNPIX.SITEID" OrderNumber="2" Mandatory="No"
                     MethodOID="MT.ADQSNPIX.SITEID"/>
            <ItemRef ItemOID="IT.ADNPIX.SITEGR1" OrderNumber="3" Mandatory="No"
                     MethodOID="MT.ADQSNPIX.SITEGR1"/>
            <ItemRef ItemOID="IT.ADNPIX.USUBJID" OrderNumber="4" Mandatory="No" KeySequence="1"
                     MethodOID="MT.ADQSNPIX.USUBJID"/>
            <ItemRef ItemOID="IT.ADNPIX.TRTSDT" OrderNumber="5" Mandatory="No"
                     MethodOID="MT.ADQSNPIX.TRTSDT"/>
            <ItemRef ItemOID="IT.ADNPIX.TRTEDT" OrderNumber="6" Mandatory="No"
                     MethodOID="MT.ADQSNPIX.TRTEDT"/>
            <ItemRef ItemOID="IT.ADNPIX.TRTP" OrderNumber="7" Mandatory="No"
                     MethodOID="MT.ADQSNPIX.TRTP"/>
            <ItemRef ItemOID="IT.ADNPIX.TRTPN" OrderNumber="8" Mandatory="No"
                     MethodOID="MT.ADQSNPIX.TRTPN"/>
            <ItemRef ItemOID="IT.ADNPIX.AGE" OrderNumber="9" Mandatory="No"
                     MethodOID="MT.ADQSNPIX.AGE"/>
            <ItemRef ItemOID="IT.ADNPIX.AGEGR1" OrderNumber="10" Mandatory="No"
                     MethodOID="MT.ADQSNPIX.AGEGR1"/>
            <ItemRef ItemOID="IT.ADNPIX.AGEGR1N" OrderNumber="11" Mandatory="No"
                     MethodOID="MT.ADQSNPIX.AGEGR1N"/>
            <ItemRef ItemOID="IT.ADNPIX.RACE" OrderNumber="12" Mandatory="No"
                     MethodOID="MT.ADQSNPIX.RACE"/>
            <ItemRef ItemOID="IT.ADNPIX.RACEN" OrderNumber="13" Mandatory="No"
                     MethodOID="MT.ADQSNPIX.RACEN"/>
            <ItemRef ItemOID="IT.ADNPIX.SEX" OrderNumber="14" Mandatory="No"
                     MethodOID="MT.ADQSNPIX.SEX"/>
            <ItemRef ItemOID="IT.ADNPIX.ITTFL" OrderNumber="15" Mandatory="No"
                     MethodOID="MT.ADQSNPIX.ITTFL"/>
            <ItemRef ItemOID="IT.ADNPIX.EFFFL" OrderNumber="16" Mandatory="No"
                     MethodOID="MT.ADQSNPIX.EFFFL"/>
            <ItemRef ItemOID="IT.ADNPIX.COMP24FL" OrderNumber="17" Mandatory="No"
                     MethodOID="MT.ADQSNPIX.COMP24FL"/>
            <ItemRef ItemOID="IT.ADNPIX.AVISIT" OrderNumber="18" Mandatory="No" KeySequence="3"
                     MethodOID="MT.ADQSNPIX.AVISIT"/>
            <ItemRef ItemOID="IT.ADNPIX.AVISITN" OrderNumber="19" Mandatory="No"
                     MethodOID="MT.ADQSNPIX.AVISITN"/>
            <ItemRef ItemOID="IT.ADNPIX.ADY" OrderNumber="20" Mandatory="No"
                     MethodOID="MT.ADQSNPIX.ADY"/>
            <ItemRef ItemOID="IT.ADNPIX.ADT" OrderNumber="21" Mandatory="No" KeySequence="4"
                     MethodOID="MT.ADQSNPIX.ADT"/>
            <ItemRef ItemOID="IT.ADNPIX.VISITNUM" OrderNumber="22" Mandatory="No"
                     MethodOID="MT.ADQSNPIX.VISITNUM"/>
            <ItemRef ItemOID="IT.ADNPIX.VISIT" OrderNumber="23" Mandatory="No"
                     MethodOID="MT.ADQSNPIX.VISIT"/>
            <ItemRef ItemOID="IT.ADNPIX.PARAM" OrderNumber="24" Mandatory="No"
                     MethodOID="MT.ADNPIX.PARAM"/>
            <ItemRef ItemOID="IT.ADNPIX.PARAMCD" OrderNumber="25" Mandatory="No" KeySequence="2"
                     MethodOID="MT.ADNPIX.PARAMCD"/>
            <ItemRef ItemOID="IT.ADNPIX.PARAMN" OrderNumber="26" Mandatory="No"
                     MethodOID="MT.ADQSNPIX.PARAMN"/>
            <ItemRef ItemOID="IT.ADNPIX.PARAMTYP" OrderNumber="27" Mandatory="No"
                     MethodOID="ADNPIX.PARAMTYP"/>
            <ItemRef ItemOID="IT.ADNPIX.AVAL" OrderNumber="28" Mandatory="No"
                     MethodOID="ADNPIX.AVAL"/>
            <ItemRef ItemOID="IT.ADNPIX.BASE" OrderNumber="29" Mandatory="No"
                     MethodOID="ADNPIX.BASE"/>
            <ItemRef ItemOID="IT.ADNPIX.CHG" OrderNumber="30" Mandatory="No"
                     MethodOID="ADNPIX.CHG"/>
            <ItemRef ItemOID="IT.ADNPIX.PCHG" OrderNumber="31" Mandatory="No"
                     MethodOID="ADNPIX.PCHG"/>
            <ItemRef ItemOID="IT.ADNPIX.ABLFL" OrderNumber="32" Mandatory="No"
                     MethodOID="ADNPIX.ABLFL"/>
            <ItemRef ItemOID="IT.ADNPIX.ANL01FL" OrderNumber="33" Mandatory="No"
                     MethodOID="ADNPIX.ANL01FL"/>
            <ItemRef ItemOID="IT.ADNPIX.DTYPE" OrderNumber="34" Mandatory="No"
                     MethodOID="ADNPIX.DTYPE"/>
            <ItemRef ItemOID="IT.ADNPIX.AWRANGE" OrderNumber="35" Mandatory="No"
                     MethodOID="MT.ADQSNPIX.AWRANGE"/>
            <ItemRef ItemOID="IT.ADNPIX.AWTARGET" OrderNumber="36" Mandatory="No"
                     MethodOID="MT.ADQSNPIX.AWTARGET"/>
            <ItemRef ItemOID="IT.ADNPIX.AWTDIFF" OrderNumber="37" Mandatory="No"
                     MethodOID="MT.ADQSNPIX.AWTDIFF"/>
            <ItemRef ItemOID="IT.ADNPIX.AWLO" OrderNumber="38" Mandatory="No"
                     MethodOID="MT.ADQSNPIX.AWLO"/>
            <ItemRef ItemOID="IT.ADNPIX.AWHI" OrderNumber="39" Mandatory="No"
                     MethodOID="MT.ADQSNPIX.AWHI"/>
            <ItemRef ItemOID="IT.ADNPIX.AWU" OrderNumber="40" Mandatory="No"
                     MethodOID="MT.ADQSNPIX.AWU"/>
            <ItemRef ItemOID="IT.ADNPIX.QSSEQ" OrderNumber="41" Mandatory="No"
                     MethodOID="MT.ADNPIX.QSSEQ"/>
            <def:leaf ID="LF.ADNPIX" xlink:href="adnpix.xpt">
               <def:title>adnpix.xpt</def:title>
            </def:leaf>
         </ItemGroupDef>
         <ItemGroupDef OID="IG.ADSL" Name="ADSL" Repeating="No" IsReferenceData="No"
                       SASDatasetName="ADSL"
                       Purpose="Analysis"
                       def:Structure="one record per subject"
                       def:Class="SUBJECT LEVEL ANALYSIS DATASET"
                       def:ArchiveLocationID="LF.ADSL">
            <Description>
               <TranslatedText xml:lang="en">Subject-Level Analysis Dataset</TranslatedText>
            </Description>
            <ItemRef ItemOID="IT.ADSL.STUDYID" OrderNumber="1" Mandatory="No"
                     MethodOID="MT.ADSL.STUDYID"/>
            <ItemRef ItemOID="IT.ADSL.USUBJID" OrderNumber="2" Mandatory="No" KeySequence="1"
                     MethodOID="MT.ADSL.USUBJID"/>
            <ItemRef ItemOID="IT.ADSL.SUBJID" OrderNumber="3" Mandatory="No"
                     MethodOID="MT.ADSL.SUBJID"/>
            <ItemRef ItemOID="IT.ADSL.SITEID" OrderNumber="4" Mandatory="No"
                     MethodOID="MT.ADSL.SITEID"/>
            <ItemRef ItemOID="IT.ADSL.SITEGR1" OrderNumber="5" Mandatory="No"
                     MethodOID="MT.ADSL.SITEGR1"/>
            <ItemRef ItemOID="IT.ADSL.ARM" OrderNumber="6" Mandatory="No" MethodOID="MT.ADSL.ARM"/>
            <ItemRef ItemOID="IT.ADSL.TRT01P" OrderNumber="7" Mandatory="No"
                     MethodOID="MT.ADSL.TRT01P"/>
            <ItemRef ItemOID="IT.ADSL.TRT01PN" OrderNumber="8" Mandatory="No"
                     MethodOID="MT.ADSL.TRT01PN"/>
            <ItemRef ItemOID="IT.ADSL.TRT01A" OrderNumber="9" Mandatory="No"
                     MethodOID="MT.ADSL.TRT01A"/>
            <ItemRef ItemOID="IT.ADSL.TRT01AN" OrderNumber="10" Mandatory="No"
                     MethodOID="MT.ADSL.TRT01AN"/>
            <ItemRef ItemOID="IT.ADSL.TRTSDT" OrderNumber="11" Mandatory="No"
                     MethodOID="MT.ADSL.TRTSDT"/>
            <ItemRef ItemOID="IT.ADSL.TRTEDT" OrderNumber="12" Mandatory="No"
                     MethodOID="MT.ADSL.TRTEDT"/>
            <ItemRef ItemOID="IT.ADSL.TRTDURD" OrderNumber="13" Mandatory="No"
                     MethodOID="MT.ADSL.TRTDUR"/>
            <ItemRef ItemOID="IT.ADSL.AVGDD" OrderNumber="14" Mandatory="No"
                     MethodOID="MT.ADSL.AVGDD"/>
            <ItemRef ItemOID="IT.ADSL.CUMDOSE" OrderNumber="15" Mandatory="No"
                     MethodOID="MT.ADSL.CUMDOSE"/>
            <ItemRef ItemOID="IT.ADSL.AGE" OrderNumber="16" Mandatory="No" MethodOID="MT.ADSL.AGE"/>
            <ItemRef ItemOID="IT.ADSL.AGEGR1" OrderNumber="17" Mandatory="No"
                     MethodOID="MT.ADSL.AGEGR1"/>
            <ItemRef ItemOID="IT.ADSL.AGEGR1N" OrderNumber="18" Mandatory="No"
                     MethodOID="MT.ADSL.AGEGR1N"/>
            <ItemRef ItemOID="IT.ADSL.AGEU" OrderNumber="19" Mandatory="No" MethodOID="MT.ADSL.AGEU"/>
            <ItemRef ItemOID="IT.ADSL.RACE" OrderNumber="20" Mandatory="No" MethodOID="MT.ADSL.RACE"/>
            <ItemRef ItemOID="IT.ADSL.RACEN" OrderNumber="21" Mandatory="No"
                     MethodOID="MT.ADSL.RACEN"/>
            <ItemRef ItemOID="IT.ADSL.SEX" OrderNumber="22" Mandatory="No" MethodOID="MT.ADSL.SEX"/>
            <ItemRef ItemOID="IT.ADSL.ETHNIC" OrderNumber="23" Mandatory="No"
                     MethodOID="MT.ADSL.ETHNIC"/>
            <ItemRef ItemOID="IT.ADSL.SAFFL" OrderNumber="24" Mandatory="No"
                     MethodOID="MT.ADSL.SAFFL"/>
            <ItemRef ItemOID="IT.ADSL.ITTFL" OrderNumber="25" Mandatory="No"
                     MethodOID="MT.ADSL.ITTFL"/>
            <ItemRef ItemOID="IT.ADSL.EFFFL" OrderNumber="26" Mandatory="No"
                     MethodOID="MT.ADSL.EFFFL"/>
            <ItemRef ItemOID="IT.ADSL.COMP8FL" OrderNumber="27" Mandatory="No"
                     MethodOID="MT.ADSL.COMP8FL"/>
            <ItemRef ItemOID="IT.ADSL.COMP16FL" OrderNumber="28" Mandatory="No"
                     MethodOID="MT.ADSL.COMP16FL"/>
            <ItemRef ItemOID="IT.ADSL.COMP24FL" OrderNumber="29" Mandatory="No"
                     MethodOID="MT.ADSL.COMP24FL"/>
            <ItemRef ItemOID="IT.ADSL.DISCONFL" OrderNumber="30" Mandatory="No"
                     MethodOID="MT.ADSL.DISCONFL"/>
            <ItemRef ItemOID="IT.ADSL.DSRAEFL" OrderNumber="31" Mandatory="No"
                     MethodOID="MT.ADSL.DSRAEFL"/>
            <ItemRef ItemOID="IT.ADSL.DTHFL" OrderNumber="32" Mandatory="No"
                     MethodOID="MT.ADSL.DTHFL"/>
            <ItemRef ItemOID="IT.ADSL.BMIBL" OrderNumber="33" Mandatory="No"
                     MethodOID="MT.ADSL.BMIBL"/>
            <ItemRef ItemOID="IT.ADSL.BMIBLGR1" OrderNumber="34" Mandatory="No"
                     MethodOID="MT.ADSL.BMIBLGR1"/>
            <ItemRef ItemOID="IT.ADSL.HEIGHTBL" OrderNumber="35" Mandatory="No"
                     MethodOID="MT.ADSL.HEIGHTBL"/>
            <ItemRef ItemOID="IT.ADSL.WEIGHTBL" OrderNumber="36" Mandatory="No"
                     MethodOID="MT.ADSL.WEIGHTBL"/>
            <ItemRef ItemOID="IT.ADSL.EDUCLVL" OrderNumber="37" Mandatory="No"
                     MethodOID="MT.ADSL.EDUCLVL"/>
            <ItemRef ItemOID="IT.ADSL.DISONSDT" OrderNumber="38" Mandatory="No"
                     MethodOID="MT.ADSL.DISONSDT"/>
            <ItemRef ItemOID="IT.ADSL.DURDIS" OrderNumber="39" Mandatory="No"
                     MethodOID="MT.ADSL.DURDIS"/>
            <ItemRef ItemOID="IT.ADSL.DURDSGR1" OrderNumber="40" Mandatory="No"
                     MethodOID="MT.ADSL.DURDSGR1"/>
            <ItemRef ItemOID="IT.ADSL.VISIT1DT" OrderNumber="41" Mandatory="No"
                     MethodOID="MT.ADSL.VISIT1DT"/>
            <ItemRef ItemOID="IT.ADSL.RFSTDTC" OrderNumber="42" Mandatory="No"
                     MethodOID="MT.ADSL.RFSTDTC"/>
            <ItemRef ItemOID="IT.ADSL.RFENDTC" OrderNumber="43" Mandatory="No"
                     MethodOID="MT.ADSL.RFENDTC"/>
            <ItemRef ItemOID="IT.ADSL.VISNUMEN" OrderNumber="44" Mandatory="No"
                     MethodOID="MT.ADSL.VISNUMEN"/>
            <ItemRef ItemOID="IT.ADSL.RFENDT" OrderNumber="45" Mandatory="No"
                     MethodOID="MT.ADSL.RFENDT"/>
            <ItemRef ItemOID="IT.ADSL.DCDECOD" OrderNumber="46" Mandatory="No"
                     MethodOID="MT.ADSL.DCDECOD"/>
            <ItemRef ItemOID="IT.ADSL.EOSSTT" OrderNumber="47" Mandatory="No"
                     MethodOID="MT.ADSL.EOSSTT"/>
            <ItemRef ItemOID="IT.ADSL.DCSREAS" OrderNumber="48" Mandatory="No"
                     MethodOID="MT.ADSL.DCREASCD"/>
            <ItemRef ItemOID="IT.ADSL.MMSETOT" OrderNumber="49" Mandatory="No"
                     MethodOID="MT.ADSL.MMSETOT"/>
            <def:leaf ID="LF.ADSL" xlink:href="adsl.xpt">
               <def:title>adsl.xpt</def:title>
            </def:leaf>
         </ItemGroupDef>
         <ItemGroupDef OID="IG.ADTTE" Name="ADTTE" Repeating="Yes" IsReferenceData="No"
                       SASDatasetName="ADTTE"
                       Purpose="Analysis"
                       def:Structure="one record per subject per parameter"
                       def:Class="BASIC DATA STRUCTURE"
                       def:ArchiveLocationID="LF.ADTTE">
            <Description>
               <TranslatedText xml:lang="en">AE Time To 1st Derm. Event Analysis</TranslatedText>
            </Description>
            <ItemRef ItemOID="IT.ADTTE.STUDYID" OrderNumber="1" Mandatory="No"
                     MethodOID="MT.ADTTE.STUDYID"/>
            <ItemRef ItemOID="IT.ADTTE.SITEID" OrderNumber="2" Mandatory="No"
                     MethodOID="MT.ADTTE.SITEID"/>
            <ItemRef ItemOID="IT.ADTTE.USUBJID" OrderNumber="3" Mandatory="No" KeySequence="1"
                     MethodOID="MT.ADTTE.USUBJID"/>
            <ItemRef ItemOID="IT.ADTTE.AGE" OrderNumber="4" Mandatory="No" MethodOID="MT.ADTTE.AGE"/>
            <ItemRef ItemOID="IT.ADTTE.AGEGR1" OrderNumber="5" Mandatory="No"
                     MethodOID="MT.ADTTE.AGEGR1"/>
            <ItemRef ItemOID="IT.ADTTE.AGEGR1N" OrderNumber="6" Mandatory="No"
                     MethodOID="MT.ADTTE.AGEGR1N"/>
            <ItemRef ItemOID="IT.ADTTE.RACE" OrderNumber="7" Mandatory="No"
                     MethodOID="MT.ADTTE.RACE"/>
            <ItemRef ItemOID="IT.ADTTE.RACEN" OrderNumber="8" Mandatory="No"
                     MethodOID="MT.ADTTE.RACEN"/>
            <ItemRef ItemOID="IT.ADTTE.SEX" OrderNumber="9" Mandatory="No" MethodOID="MT.ADTTE.SEX"/>
            <ItemRef ItemOID="IT.ADTTE.TRTSDT" OrderNumber="10" Mandatory="No"
                     MethodOID="MT.ADTTE.TRTSDT"/>
            <ItemRef ItemOID="IT.ADTTE.TRTEDT" OrderNumber="11" Mandatory="No"
                     MethodOID="MT.ADTTE.TRTEDT"/>
            <ItemRef ItemOID="IT.ADTTE.TRTDUR" OrderNumber="12" Mandatory="No"
                     MethodOID="MT.ADTTE.TRTDUR"/>
            <ItemRef ItemOID="IT.ADTTE.TRTP" OrderNumber="13" Mandatory="No"
                     MethodOID="MT.ADTTE.TRTP"/>
            <ItemRef ItemOID="IT.ADTTE.TRTA" OrderNumber="14" Mandatory="No"
                     MethodOID="MT.ADTTE.TRTA"/>
            <ItemRef ItemOID="IT.ADTTE.TRTAN" OrderNumber="15" Mandatory="No"
                     MethodOID="MT.ADTTE.TRTAN"/>
            <ItemRef ItemOID="IT.ADTTE.PARAM" OrderNumber="16" Mandatory="No"
                     MethodOID="MT.ADTTE.PARAM"/>
            <ItemRef ItemOID="IT.ADTTE.PARAMCD" OrderNumber="17" Mandatory="No" KeySequence="2"
                     MethodOID="MT.ADTTE.PARAMCD"/>
            <ItemRef ItemOID="IT.ADTTE.AVAL" OrderNumber="18" Mandatory="No"
                     MethodOID="MT.ADTTE.AVAL"/>
            <ItemRef ItemOID="IT.ADTTE.STARTDT" OrderNumber="19" Mandatory="No"
                     MethodOID="MT.ADTTE.STARTDT"/>
            <ItemRef ItemOID="IT.ADTTE.ADT" OrderNumber="20" Mandatory="No" MethodOID="MT.ADTTE.ADT"/>
            <ItemRef ItemOID="IT.ADTTE.CNSR" OrderNumber="21" Mandatory="No"
                     MethodOID="MT.ADTTE.CNSR"/>
            <ItemRef ItemOID="IT.ADTTE.EVNTDESC" OrderNumber="22" Mandatory="No"
                     MethodOID="MT.ADTTE.EVNTDESC"/>
            <ItemRef ItemOID="IT.ADTTE.SRCDOM" OrderNumber="23" Mandatory="No"
                     MethodOID="MT.ADTTE.SRCDOM"/>
            <ItemRef ItemOID="IT.ADTTE.SRCVAR" OrderNumber="24" Mandatory="No"
                     MethodOID="MT.ADTTE.SRCVAR"/>
            <ItemRef ItemOID="IT.ADTTE.SRCSEQ" OrderNumber="25" Mandatory="No"
                     MethodOID="MT.ADTTE.SRCSEQ"/>
            <ItemRef ItemOID="IT.ADTTE.SAFFL" OrderNumber="26" Mandatory="No"
                     MethodOID="MT.ADTTE.SAFFL"/>
            <def:leaf ID="LF.ADTTE" xlink:href="adtte.xpt">
               <def:title>adtte.xpt</def:title>
            </def:leaf>
         </ItemGroupDef>
         <ItemGroupDef OID="IG.ADVS" Name="ADVS" Repeating="Yes" IsReferenceData="No"
                       SASDatasetName="ADVS"
                       Purpose="Analysis"
                       def:Structure="one record per subject per parameter per analysis visit per analysis timepoint"
                       def:Class="BASIC DATA STRUCTURE"
                       def:ArchiveLocationID="LF.ADVS">
            <Description>
               <TranslatedText xml:lang="en">Vital Signs Analysis Dataset</TranslatedText>
            </Description>
            <ItemRef ItemOID="IT.ADVS.STUDYID" OrderNumber="1" Mandatory="No"
                     MethodOID="MT.ADVS.STUDYID"/>
            <ItemRef ItemOID="IT.ADVS.SITEID" OrderNumber="2" Mandatory="No"
                     MethodOID="MT.ADVS.SITEID"/>
            <ItemRef ItemOID="IT.ADVS.USUBJID" OrderNumber="3" Mandatory="No" KeySequence="1"
                     MethodOID="MT.ADVS.USUBJID"/>
            <ItemRef ItemOID="IT.ADVS.AGE" OrderNumber="4" Mandatory="No" MethodOID="MT.ADVS.AGE"/>
            <ItemRef ItemOID="IT.ADVS.AGEGR1" OrderNumber="5" Mandatory="No"
                     MethodOID="MT.ADVS.AGEGR1"/>
            <ItemRef ItemOID="IT.ADVS.AGEGR1N" OrderNumber="6" Mandatory="No"
                     MethodOID="MT.ADVS.AGEGR1N"/>
            <ItemRef ItemOID="IT.ADVS.RACE" OrderNumber="7" Mandatory="No" MethodOID="MT.ADVS.RACE"/>
            <ItemRef ItemOID="IT.ADVS.RACEN" OrderNumber="8" Mandatory="No"
                     MethodOID="MT.ADVS.RACEN"/>
            <ItemRef ItemOID="IT.ADVS.SEX" OrderNumber="9" Mandatory="No" MethodOID="MT.ADVS.SEX"/>
            <ItemRef ItemOID="IT.ADVS.SAFFL" OrderNumber="10" Mandatory="No"
                     MethodOID="MT.ADVS.SAFFL"/>
            <ItemRef ItemOID="IT.ADVS.TRTSDT" OrderNumber="11" Mandatory="No"
                     MethodOID="MT.ADVS.TRTSDT"/>
            <ItemRef ItemOID="IT.ADVS.TRTEDT" OrderNumber="12" Mandatory="No"
                     MethodOID="MT.ADVS.TRTEDT"/>
            <ItemRef ItemOID="IT.ADVS.TRTP" OrderNumber="13" Mandatory="No" MethodOID="MT.ADVS.TRTP"/>
            <ItemRef ItemOID="IT.ADVS.TRTPN" OrderNumber="14" Mandatory="No"
                     MethodOID="MT.ADVS.TRTPN"/>
            <ItemRef ItemOID="IT.ADVS.TRTA" OrderNumber="15" Mandatory="No" MethodOID="MT.ADVS.TRTA"/>
            <ItemRef ItemOID="IT.ADVS.TRTAN" OrderNumber="16" Mandatory="No"
                     MethodOID="MT.ADVS.TRTAN"/>
            <ItemRef ItemOID="IT.ADVS.PARAMCD" OrderNumber="17" Mandatory="No" KeySequence="2"
                     MethodOID="MT.ADVS.PARAMCD"/>
            <ItemRef ItemOID="IT.ADVS.PARAM" OrderNumber="18" Mandatory="No"
                     MethodOID="ADVS.PARAM"/>
            <ItemRef ItemOID="IT.ADVS.PARAMN" OrderNumber="19" Mandatory="No"
                     MethodOID="MT.ADVS.PARAMN"/>
            <ItemRef ItemOID="IT.ADVS.ADT" OrderNumber="20" Mandatory="No" MethodOID="MT.ADVS.ADT"/>
            <ItemRef ItemOID="IT.ADVS.ADY" OrderNumber="21" Mandatory="No" MethodOID="MT.ADVS.ADY"/>
            <ItemRef ItemOID="IT.ADVS.ATPTN" OrderNumber="22" Mandatory="No"
                     MethodOID="MT.ADVS.ATPTN"/>
            <ItemRef ItemOID="IT.ADVS.ATPT" OrderNumber="23" Mandatory="No" KeySequence="4"
                     MethodOID="MT.ADVS.ATPT"/>
            <ItemRef ItemOID="IT.ADVS.AVISIT" OrderNumber="24" Mandatory="No" KeySequence="3"
                     MethodOID="MT.ADVS.AVISIT"/>
            <ItemRef ItemOID="IT.ADVS.AVISITN" OrderNumber="25" Mandatory="No"
                     MethodOID="MT.ADVS.AVISITN"/>
            <ItemRef ItemOID="IT.ADVS.AVAL" OrderNumber="26" Mandatory="No" MethodOID="MT.ADVS.AVAL"/>
            <ItemRef ItemOID="IT.ADVS.BASE" OrderNumber="27" Mandatory="No" MethodOID="MT.ADVS.BASE"/>
            <ItemRef ItemOID="IT.ADVS.BASETYPE" OrderNumber="28" Mandatory="No"
                     MethodOID="MT.ADVS.BASETYPE"/>
            <ItemRef ItemOID="IT.ADVS.CHG" OrderNumber="29" Mandatory="No" MethodOID="MT.ADVS.CHG"/>
            <ItemRef ItemOID="IT.ADVS.PCHG" OrderNumber="30" Mandatory="No" MethodOID="MT.ADVS.PCHG"/>
            <ItemRef ItemOID="IT.ADVS.VISITNUM" OrderNumber="31" Mandatory="No"
                     MethodOID="MT.ADVS.VISITNUM"/>
            <ItemRef ItemOID="IT.ADVS.VISIT" OrderNumber="32" Mandatory="No"
                     MethodOID="MT.ADVS.VISIT"/>
            <ItemRef ItemOID="IT.ADVS.VSSEQ" OrderNumber="33" Mandatory="No"
                     MethodOID="MT.ADVS.VSSEQ"/>
            <ItemRef ItemOID="IT.ADVS.ANL01FL" OrderNumber="34" Mandatory="No"
                     MethodOID="MT.ADVS.ANL01FL"/>
            <ItemRef ItemOID="IT.ADVS.ABLFL" OrderNumber="35" Mandatory="No"
                     MethodOID="MT.ADVS.ABLFL"/>
            <def:leaf ID="LF.ADVS" xlink:href="advs.xpt">
               <def:title>advs.xpt</def:title>
            </def:leaf>
         </ItemGroupDef>
         <ItemDef OID="IT.ADADAS.STUDYID" Name="STUDYID" DataType="text" Length="12"
                  SASFieldName="STUDYID">
            <Description>
               <TranslatedText xml:lang="en">Study Identifier</TranslatedText>
            </Description>
            <def:Origin Type="Derived"/>
         </ItemDef>
         <ItemDef OID="IT.ADADAS.SITEID" Name="SITEID" DataType="text" Length="3"
                  SASFieldName="SITEID">
            <Description>
               <TranslatedText xml:lang="en">Study Site Identifier</TranslatedText>
            </Description>
            <def:Origin Type="Derived"/>
         </ItemDef>
         <ItemDef OID="IT.ADADAS.SITEGR1" Name="SITEGR1" DataType="text" Length="3"
                  SASFieldName="SITEGR1">
            <Description>
               <TranslatedText xml:lang="en">Pooled Site Group 1</TranslatedText>
            </Description>
            <def:Origin Type="Derived"/>
         </ItemDef>
         <ItemDef OID="IT.ADADAS.USUBJID" Name="USUBJID" DataType="text" Length="11"
                  SASFieldName="USUBJID">
            <Description>
               <TranslatedText xml:lang="en">Unique Subject Identifier</TranslatedText>
            </Description>
            <def:Origin Type="Derived"/>
         </ItemDef>
         <ItemDef OID="IT.ADADAS.TRTSDT" Name="TRTSDT" DataType="integer" Length="8"
                  SASFieldName="TRTSDT"
                  def:DisplayFormat="DATE9.">
            <Description>
               <TranslatedText xml:lang="en">Date of First Exposure to Treatment</TranslatedText>
            </Description>
            <def:Origin Type="Derived"/>
         </ItemDef>
         <ItemDef OID="IT.ADADAS.TRTEDT" Name="TRTEDT" DataType="integer" Length="8"
                  SASFieldName="TRTEDT"
                  def:DisplayFormat="DATE9.">
            <Description>
               <TranslatedText xml:lang="en">Date of Last Exposure to Treatment</TranslatedText>
            </Description>
            <def:Origin Type="Derived"/>
         </ItemDef>
         <ItemDef OID="IT.ADADAS.TRTP" Name="TRTP" DataType="text" Length="20"
                  SASFieldName="TRTP">
            <Description>
               <TranslatedText xml:lang="en">Planned Treatment</TranslatedText>
            </Description>
            <CodeListRef CodeListOID="CL.ARM"/>
            <def:Origin Type="Derived"/>
         </ItemDef>
         <ItemDef OID="IT.ADADAS.TRTPN" Name="TRTPN" DataType="integer" Length="8"
                  SASFieldName="TRTPN">
            <Description>
               <TranslatedText xml:lang="en">Planned Treatment (N)</TranslatedText>
            </Description>
            <CodeListRef CodeListOID="CL.ARMN"/>
            <def:Origin Type="Derived"/>
         </ItemDef>
         <ItemDef OID="IT.ADADAS.AGE" Name="AGE" DataType="integer" Length="8" SASFieldName="AGE">
            <Description>
               <TranslatedText xml:lang="en">Age</TranslatedText>
            </Description>
            <def:Origin Type="Derived"/>
         </ItemDef>
         <ItemDef OID="IT.ADADAS.AGEGR1" Name="AGEGR1" DataType="text" Length="5"
                  SASFieldName="AGEGR1">
            <Description>
               <TranslatedText xml:lang="en">Pooled Age Group 1</TranslatedText>
            </Description>
            <CodeListRef CodeListOID="CL.AGEGR1"/>
            <def:Origin Type="Derived"/>
         </ItemDef>
         <ItemDef OID="IT.ADADAS.AGEGR1N" Name="AGEGR1N" DataType="integer" Length="8"
                  SASFieldName="AGEGR1N">
            <Description>
               <TranslatedText xml:lang="en">Pooled Age Group 1 (N)</TranslatedText>
            </Description>
            <CodeListRef CodeListOID="CL.AGEGR1N"/>
            <def:Origin Type="Derived"/>
         </ItemDef>
         <ItemDef OID="IT.ADADAS.RACE" Name="RACE" DataType="text" Length="32"
                  SASFieldName="RACE">
            <Description>
               <TranslatedText xml:lang="en">Race</TranslatedText>
            </Description>
            <CodeListRef CodeListOID="CL.RACE"/>
            <def:Origin Type="Derived"/>
         </ItemDef>
         <ItemDef OID="IT.ADADAS.RACEN" Name="RACEN" DataType="integer" Length="8"
                  SASFieldName="RACEN">
            <Description>
               <TranslatedText xml:lang="en">Race (N)</TranslatedText>
            </Description>
            <CodeListRef CodeListOID="CL.RACEN"/>
            <def:Origin Type="Derived"/>
         </ItemDef>
         <ItemDef OID="IT.ADADAS.SEX" Name="SEX" DataType="text" Length="1" SASFieldName="SEX">
            <Description>
               <TranslatedText xml:lang="en">Sex</TranslatedText>
            </Description>
            <CodeListRef CodeListOID="CL.SEX"/>
            <def:Origin Type="Derived"/>
         </ItemDef>
         <ItemDef OID="IT.ADADAS.ITTFL" Name="ITTFL" DataType="text" Length="1"
                  SASFieldName="ITTFL">
            <Description>
               <TranslatedText xml:lang="en">Intent-to-Treat Population Flag</TranslatedText>
            </Description>
            <CodeListRef CodeListOID="CL.YN"/>
            <def:Origin Type="Derived"/>
         </ItemDef>
         <ItemDef OID="IT.ADADAS.EFFFL" Name="EFFFL" DataType="text" Length="1"
                  SASFieldName="EFFFL">
            <Description>
               <TranslatedText xml:lang="en">Efficacy Population Flag</TranslatedText>
            </Description>
            <CodeListRef CodeListOID="CL.YN"/>
            <def:Origin Type="Derived"/>
         </ItemDef>
         <ItemDef OID="IT.ADADAS.COMP24FL" Name="COMP24FL" DataType="text" Length="1"
                  SASFieldName="COMP24FL">
            <Description>
               <TranslatedText xml:lang="en">Completers of Week 24 Population Flag</TranslatedText>
            </Description>
            <CodeListRef CodeListOID="CL.YN"/>
            <def:Origin Type="Derived"/>
         </ItemDef>
         <ItemDef OID="IT.ADADAS.AVISIT" Name="AVISIT" DataType="text" Length="16"
                  SASFieldName="AVISIT">
            <Description>
               <TranslatedText xml:lang="en">Analysis Visit</TranslatedText>
            </Description>
            <CodeListRef CodeListOID="CL.AVISIT"/>
            <def:Origin Type="Derived"/>
         </ItemDef>
         <ItemDef OID="IT.ADADAS.AVISITN" Name="AVISITN" DataType="integer" Length="8"
                  SASFieldName="AVISITN">
            <Description>
               <TranslatedText xml:lang="en">Analysis Visit (N)</TranslatedText>
            </Description>
            <CodeListRef CodeListOID="CL.AVISITN"/>
            <def:Origin Type="Derived"/>
         </ItemDef>
         <ItemDef OID="IT.ADADAS.VISIT" Name="VISIT" DataType="text" Length="19"
                  SASFieldName="VISIT">
            <Description>
               <TranslatedText xml:lang="en">Visit Name</TranslatedText>
            </Description>
            <CodeListRef CodeListOID="CL.VISIT"/>
            <def:Origin Type="Derived"/>
         </ItemDef>
         <ItemDef OID="IT.ADADAS.VISITNUM" Name="VISITNUM" DataType="float" Length="8"
                  SignificantDigits="1"
                  SASFieldName="VISITNUM">
            <Description>
               <TranslatedText xml:lang="en">Visit Number</TranslatedText>
            </Description>
            <CodeListRef CodeListOID="CL.VISITNUM"/>
            <def:Origin Type="Derived"/>
         </ItemDef>
         <ItemDef OID="IT.ADADAS.ADY" Name="ADY" DataType="integer" Length="8" SASFieldName="ADY">
            <Description>
               <TranslatedText xml:lang="en">Analysis Relative Day</TranslatedText>
            </Description>
            <def:Origin Type="Derived"/>
         </ItemDef>
         <ItemDef OID="IT.ADADAS.ADT" Name="ADT" DataType="integer" Length="8" SASFieldName="ADT"
                  def:DisplayFormat="DATE9.">
            <Description>
               <TranslatedText xml:lang="en">Analysis Date</TranslatedText>
            </Description>
            <def:Origin Type="Derived"/>
         </ItemDef>
         <ItemDef OID="IT.ADADAS.PARAM" Name="PARAM" DataType="text" Length="100"
                  SASFieldName="PARAM">
            <Description>
               <TranslatedText xml:lang="en">Parameter</TranslatedText>
            </Description>
            <CodeListRef CodeListOID="CL.PARAM_ADQSADAS"/>
            <def:Origin Type="Derived"/>
         </ItemDef>
         <ItemDef OID="IT.ADADAS.PARAMCD" Name="PARAMCD" DataType="text" Length="8"
                  SASFieldName="PARAMCD">
            <Description>
               <TranslatedText xml:lang="en">Parameter Code</TranslatedText>
            </Description>
            <CodeListRef CodeListOID="CL.PARAMCD_ADQSADAS"/>
            <def:Origin Type="Derived"/>
         </ItemDef>
         <ItemDef OID="IT.ADADAS.PARAMN" Name="PARAMN" DataType="integer" Length="8"
                  SASFieldName="PARAMN">
            <Description>
               <TranslatedText xml:lang="en">Parameter (N)</TranslatedText>
            </Description>
            <CodeListRef CodeListOID="CL.PARAMN_ADQSADAS"/>
            <def:Origin Type="Derived"/>
         </ItemDef>
         <ItemDef OID="IT.ADADAS.AVAL" Name="AVAL" DataType="integer" Length="8"
                  SASFieldName="AVAL">
            <Description>
               <TranslatedText xml:lang="en">Analysis Value</TranslatedText>
            </Description>
            <def:Origin Type="Derived"/>
         </ItemDef>
         <ItemDef OID="IT.ADADAS.BASE" Name="BASE" DataType="integer" Length="8"
                  SASFieldName="BASE">
            <Description>
               <TranslatedText xml:lang="en">Baseline Value</TranslatedText>
            </Description>
            <def:Origin Type="Derived"/>
         </ItemDef>
         <ItemDef OID="IT.ADADAS.CHG" Name="CHG" DataType="integer" Length="8" SASFieldName="CHG">
            <Description>
               <TranslatedText xml:lang="en">Change from Baseline</TranslatedText>
            </Description>
            <def:Origin Type="Derived"/>
         </ItemDef>
         <ItemDef OID="IT.ADADAS.PCHG" Name="PCHG" DataType="integer" Length="8"
                  SASFieldName="PCHG">
            <Description>
               <TranslatedText xml:lang="en">Percent Change from Baseline</TranslatedText>
            </Description>
            <def:Origin Type="Derived"/>
         </ItemDef>
         <ItemDef OID="IT.ADADAS.ABLFL" Name="ABLFL" DataType="text" Length="1"
                  SASFieldName="ABLFL">
            <Description>
               <TranslatedText xml:lang="en">Baseline Record Flag</TranslatedText>
            </Description>
            <CodeListRef CodeListOID="CL.Y_BLANK"/>
            <def:Origin Type="Derived"/>
         </ItemDef>
         <ItemDef OID="IT.ADADAS.ANL01FL" Name="ANL01FL" DataType="text" Length="1"
                  SASFieldName="ANL01FL">
            <Description>
               <TranslatedText xml:lang="en">Analysis Record Flag 01</TranslatedText>
            </Description>
            <CodeListRef CodeListOID="CL.Y_BLANK"/>
            <def:Origin Type="Derived"/>
         </ItemDef>
         <ItemDef OID="IT.ADADAS.DTYPE" Name="DTYPE" DataType="text" Length="7"
                  SASFieldName="DTYPE">
            <Description>
               <TranslatedText xml:lang="en">Derivation Type</TranslatedText>
            </Description>
            <CodeListRef CodeListOID="CL.DTYPE"/>
            <def:Origin Type="Derived"/>
         </ItemDef>
         <ItemDef OID="IT.ADADAS.AWRANGE" Name="AWRANGE" DataType="text" Length="9"
                  SASFieldName="AWRANGE">
            <Description>
               <TranslatedText xml:lang="en">Analysis Window Valid Relative Range</TranslatedText>
            </Description>
            <def:Origin Type="Derived"/>
         </ItemDef>
         <ItemDef OID="IT.ADADAS.AWTARGET" Name="AWTARGET" DataType="integer" Length="8"
                  SASFieldName="AWTARGET">
            <Description>
               <TranslatedText xml:lang="en">Analysis Window Target</TranslatedText>
            </Description>
            <def:Origin Type="Derived"/>
         </ItemDef>
         <ItemDef OID="IT.ADADAS.AWTDIFF" Name="AWTDIFF" DataType="integer" Length="8"
                  SASFieldName="AWTDIFF">
            <Description>
               <TranslatedText xml:lang="en">Analysis Window Diff from Target</TranslatedText>
            </Description>
            <def:Origin Type="Derived"/>
         </ItemDef>
         <ItemDef OID="IT.ADADAS.AWLO" Name="AWLO" DataType="integer" Length="8"
                  SASFieldName="AWLO">
            <Description>
               <TranslatedText xml:lang="en">Analysis Window Beginning Timepoint</TranslatedText>
            </Description>
            <def:Origin Type="Derived"/>
         </ItemDef>
         <ItemDef OID="IT.ADADAS.AWHI" Name="AWHI" DataType="integer" Length="8"
                  SASFieldName="AWHI">
            <Description>
               <TranslatedText xml:lang="en">Analysis Window Ending Timepoint</TranslatedText>
            </Description>
            <def:Origin Type="Derived"/>
         </ItemDef>
         <ItemDef OID="IT.ADADAS.AWU" Name="AWU" DataType="text" Length="4" SASFieldName="AWU">
            <Description>
               <TranslatedText xml:lang="en">Analysis Window Unit</TranslatedText>
            </Description>
            <CodeListRef CodeListOID="CL.AWU"/>
            <def:Origin Type="Derived"/>
         </ItemDef>
         <ItemDef OID="IT.ADADAS.QSSEQ" Name="QSSEQ" DataType="integer" Length="8"
                  SASFieldName="QSSEQ">
            <Description>
               <TranslatedText xml:lang="en">Sequence Number</TranslatedText>
            </Description>
            <def:Origin Type="Derived"/>
         </ItemDef>
         <ItemDef OID="IT.ADAE.STUDYID" Name="STUDYID" DataType="text" Length="12"
                  SASFieldName="STUDYID">
            <Description>
               <TranslatedText xml:lang="en">Study Identifier</TranslatedText>
            </Description>
            <def:Origin Type="Derived"/>
         </ItemDef>
         <ItemDef OID="IT.ADAE.SITEID" Name="SITEID" DataType="text" Length="3"
                  SASFieldName="SITEID">
            <Description>
               <TranslatedText xml:lang="en">Study Site Identifier</TranslatedText>
            </Description>
            <def:Origin Type="Derived"/>
         </ItemDef>
         <ItemDef OID="IT.ADAE.USUBJID" Name="USUBJID" DataType="text" Length="11"
                  SASFieldName="USUBJID">
            <Description>
               <TranslatedText xml:lang="en">Unique Subject Identifier</TranslatedText>
            </Description>
            <def:Origin Type="Derived"/>
         </ItemDef>
         <ItemDef OID="IT.ADAE.TRTA" Name="TRTA" DataType="text" Length="20" SASFieldName="TRTA">
            <Description>
               <TranslatedText xml:lang="en">Actual Treatment</TranslatedText>
            </Description>
            <CodeListRef CodeListOID="CL.ARM"/>
            <def:Origin Type="Derived"/>
         </ItemDef>
         <ItemDef OID="IT.ADAE.TRTAN" Name="TRTAN" DataType="integer" Length="8"
                  SASFieldName="TRTAN">
            <Description>
               <TranslatedText xml:lang="en">Actual Treatment (N)</TranslatedText>
            </Description>
            <CodeListRef CodeListOID="CL.ARMN"/>
            <def:Origin Type="Derived"/>
         </ItemDef>
         <ItemDef OID="IT.ADAE.AGE" Name="AGE" DataType="integer" Length="8" SASFieldName="AGE">
            <Description>
               <TranslatedText xml:lang="en">Age</TranslatedText>
            </Description>
            <def:Origin Type="Derived"/>
         </ItemDef>
         <ItemDef OID="IT.ADAE.AGEGR1" Name="AGEGR1" DataType="text" Length="5"
                  SASFieldName="AGEGR1">
            <Description>
               <TranslatedText xml:lang="en">Pooled Age Group 1</TranslatedText>
            </Description>
            <CodeListRef CodeListOID="CL.AGEGR1"/>
            <def:Origin Type="Derived"/>
         </ItemDef>
         <ItemDef OID="IT.ADAE.AGEGR1N" Name="AGEGR1N" DataType="integer" Length="8"
                  SASFieldName="AGEGR1N">
            <Description>
               <TranslatedText xml:lang="en">Pooled Age Group 1 (N)</TranslatedText>
            </Description>
            <CodeListRef CodeListOID="CL.AGEGR1N"/>
            <def:Origin Type="Derived"/>
         </ItemDef>
         <ItemDef OID="IT.ADAE.RACE" Name="RACE" DataType="text" Length="32" SASFieldName="RACE">
            <Description>
               <TranslatedText xml:lang="en">Race</TranslatedText>
            </Description>
            <CodeListRef CodeListOID="CL.RACE"/>
            <def:Origin Type="Derived"/>
         </ItemDef>
         <ItemDef OID="IT.ADAE.RACEN" Name="RACEN" DataType="integer" Length="8"
                  SASFieldName="RACEN">
            <Description>
               <TranslatedText xml:lang="en">Race (N)</TranslatedText>
            </Description>
            <CodeListRef CodeListOID="CL.RACEN"/>
            <def:Origin Type="Derived"/>
         </ItemDef>
         <ItemDef OID="IT.ADAE.SEX" Name="SEX" DataType="text" Length="1" SASFieldName="SEX">
            <Description>
               <TranslatedText xml:lang="en">Sex</TranslatedText>
            </Description>
            <CodeListRef CodeListOID="CL.SEX"/>
            <def:Origin Type="Derived"/>
         </ItemDef>
         <ItemDef OID="IT.ADAE.SAFFL" Name="SAFFL" DataType="text" Length="1"
                  SASFieldName="SAFFL">
            <Description>
               <TranslatedText xml:lang="en">Safety Population Flag</TranslatedText>
            </Description>
            <CodeListRef CodeListOID="CL.YN"/>
            <def:Origin Type="Derived"/>
         </ItemDef>
         <ItemDef OID="IT.ADAE.TRTSDT" Name="TRTSDT" DataType="integer" Length="8"
                  SASFieldName="TRTSDT"
                  def:DisplayFormat="DATE9.">
            <Description>
               <TranslatedText xml:lang="en">Date of First Exposure to Treatment</TranslatedText>
            </Description>
            <def:Origin Type="Derived"/>
         </ItemDef>
         <ItemDef OID="IT.ADAE.TRTEDT" Name="TRTEDT" DataType="integer" Length="8"
                  SASFieldName="TRTEDT"
                  def:DisplayFormat="DATE9.">
            <Description>
               <TranslatedText xml:lang="en">Date of Last Exposure to Treatment</TranslatedText>
            </Description>
            <def:Origin Type="Derived"/>
         </ItemDef>
         <ItemDef OID="IT.ADAE.ASTDT" Name="ASTDT" DataType="integer" Length="8"
                  SASFieldName="ASTDT"
                  def:DisplayFormat="DATE9.">
            <Description>
               <TranslatedText xml:lang="en">Analysis Start Date</TranslatedText>
            </Description>
            <def:Origin Type="Derived"/>
         </ItemDef>
         <ItemDef OID="IT.ADAE.ASTDTF" Name="ASTDTF" DataType="text" Length="1"
                  SASFieldName="ASTDTF">
            <Description>
               <TranslatedText xml:lang="en">Analysis Start Date Imputation Flag</TranslatedText>
            </Description>
            <def:Origin Type="Derived"/>
         </ItemDef>
         <ItemDef OID="IT.ADAE.ASTDY" Name="ASTDY" DataType="integer" Length="8"
                  SASFieldName="ASTDY">
            <Description>
               <TranslatedText xml:lang="en">Analysis Start Relative Day</TranslatedText>
            </Description>
            <def:Origin Type="Derived"/>
         </ItemDef>
         <ItemDef OID="IT.ADAE.AENDT" Name="AENDT" DataType="integer" Length="8"
                  SASFieldName="AENDT"
                  def:DisplayFormat="DATE9.">
            <Description>
               <TranslatedText xml:lang="en">Analysis End Date</TranslatedText>
            </Description>
            <def:Origin Type="Derived"/>
         </ItemDef>
         <ItemDef OID="IT.ADAE.AENDY" Name="AENDY" DataType="integer" Length="8"
                  SASFieldName="AENDY">
            <Description>
               <TranslatedText xml:lang="en">Analysis End Relative Day</TranslatedText>
            </Description>
            <def:Origin Type="Derived"/>
         </ItemDef>
         <ItemDef OID="IT.ADAE.ADURN" Name="ADURN" DataType="integer" Length="8"
                  SASFieldName="ADURN">
            <Description>
               <TranslatedText xml:lang="en">AE Duration (N)</TranslatedText>
            </Description>
            <def:Origin Type="Derived"/>
         </ItemDef>
         <ItemDef OID="IT.ADAE.ADURU" Name="ADURU" DataType="text" Length="3"
                  SASFieldName="ADURU">
            <Description>
               <TranslatedText xml:lang="en">AE Duration Units</TranslatedText>
            </Description>
            <def:Origin Type="Derived"/>
         </ItemDef>
         <ItemDef OID="IT.ADAE.AETERM" Name="AETERM" DataType="text" Length="46"
                  SASFieldName="AETERM">
            <Description>
               <TranslatedText xml:lang="en">Reported Term for the Adverse Event</TranslatedText>
            </Description>
            <def:Origin Type="Derived"/>
         </ItemDef>
         <ItemDef OID="IT.ADAE.AELLT" Name="AELLT" DataType="text" Length="46"
                  SASFieldName="AELLT">
            <Description>
               <TranslatedText xml:lang="en">Lowest Level Term</TranslatedText>
            </Description>
            <CodeListRef CodeListOID="CL.AEDICT"/>
            <def:Origin Type="Derived"/>
         </ItemDef>
         <ItemDef OID="IT.ADAE.AELLTCD" Name="AELLTCD" DataType="integer" Length="8"
                  SASFieldName="AELLTCD">
            <Description>
               <TranslatedText xml:lang="en">Lowest Level Term Code</TranslatedText>
            </Description>
            <def:Origin Type="Derived"/>
         </ItemDef>
         <ItemDef OID="IT.ADAE.AEDECOD" Name="AEDECOD" DataType="text" Length="46"
                  SASFieldName="AEDECOD">
            <Description>
               <TranslatedText xml:lang="en">Dictionary-Derived Term</TranslatedText>
            </Description>
            <CodeListRef CodeListOID="CL.AEDICT"/>
            <def:Origin Type="Derived"/>
         </ItemDef>
         <ItemDef OID="IT.ADAE.AEPTCD" Name="AEPTCD" DataType="integer" Length="8"
                  SASFieldName="AEPTCD">
            <Description>
               <TranslatedText xml:lang="en">Preferred Term Code</TranslatedText>
            </Description>
            <def:Origin Type="Derived"/>
         </ItemDef>
         <ItemDef OID="IT.ADAE.AEHLT" Name="AEHLT" DataType="text" Length="8"
                  SASFieldName="AEHLT">
            <Description>
               <TranslatedText xml:lang="en">High Level Term</TranslatedText>
            </Description>
            <CodeListRef CodeListOID="CL.AEDICT"/>
            <def:Origin Type="Derived"/>
         </ItemDef>
         <ItemDef OID="IT.ADAE.AEHLTCD" Name="AEHLTCD" DataType="integer" Length="8"
                  SASFieldName="AEHLTCD">
            <Description>
               <TranslatedText xml:lang="en">High Level Term Code</TranslatedText>
            </Description>
            <def:Origin Type="Derived"/>
         </ItemDef>
         <ItemDef OID="IT.ADAE.AEHLGT" Name="AEHLGT" DataType="text" Length="9"
                  SASFieldName="AEHLGT">
            <Description>
               <TranslatedText xml:lang="en">High Level Group Term</TranslatedText>
            </Description>
            <CodeListRef CodeListOID="CL.AEDICT"/>
            <def:Origin Type="Derived"/>
         </ItemDef>
         <ItemDef OID="IT.ADAE.AEHLGTCD" Name="AEHLGTCD" DataType="integer" Length="8"
                  SASFieldName="AEHLGTCD">
            <Description>
               <TranslatedText xml:lang="en">High Level Group Term Code</TranslatedText>
            </Description>
            <def:Origin Type="Derived"/>
         </ItemDef>
         <ItemDef OID="IT.ADAE.AEBODSYS" Name="AEBODSYS" DataType="text" Length="67"
                  SASFieldName="AEBODSYS">
            <Description>
               <TranslatedText xml:lang="en">Body System or Organ Class</TranslatedText>
            </Description>
            <CodeListRef CodeListOID="CL.AEDICT"/>
            <def:Origin Type="Derived"/>
         </ItemDef>
         <ItemDef OID="IT.ADAE.AESOC" Name="AESOC" DataType="text" Length="67"
                  SASFieldName="AESOC">
            <Description>
               <TranslatedText xml:lang="en">Primary System Organ Class</TranslatedText>
            </Description>
            <CodeListRef CodeListOID="CL.AEDICT"/>
            <def:Origin Type="Derived"/>
         </ItemDef>
         <ItemDef OID="IT.ADAE.AESOCCD" Name="AESOCCD" DataType="integer" Length="8"
                  SASFieldName="AESOCCD">
            <Description>
               <TranslatedText xml:lang="en">Primary System Organ Class Code</TranslatedText>
            </Description>
            <def:Origin Type="Derived"/>
         </ItemDef>
         <ItemDef OID="IT.ADAE.AESEV" Name="AESEV" DataType="text" Length="8"
                  SASFieldName="AESEV">
            <Description>
               <TranslatedText xml:lang="en">Severity/Intensity</TranslatedText>
            </Description>
            <def:Origin Type="Derived"/>
         </ItemDef>
         <ItemDef OID="IT.ADAE.AESER" Name="AESER" DataType="text" Length="1"
                  SASFieldName="AESER">
            <Description>
               <TranslatedText xml:lang="en">Serious Event</TranslatedText>
            </Description>
            <CodeListRef CodeListOID="CL.YN"/>
            <def:Origin Type="Derived"/>
         </ItemDef>
         <ItemDef OID="IT.ADAE.AESCAN" Name="AESCAN" DataType="text" Length="1"
                  SASFieldName="AESCAN">
            <Description>
               <TranslatedText xml:lang="en">Involves Cancer</TranslatedText>
            </Description>
            <CodeListRef CodeListOID="CL.YN"/>
            <def:Origin Type="Derived"/>
         </ItemDef>
         <ItemDef OID="IT.ADAE.AESCONG" Name="AESCONG" DataType="text" Length="1"
                  SASFieldName="AESCONG">
            <Description>
               <TranslatedText xml:lang="en">Congenital Anomaly or Birth Defect</TranslatedText>
            </Description>
            <CodeListRef CodeListOID="CL.YN"/>
            <def:Origin Type="Derived"/>
         </ItemDef>
         <ItemDef OID="IT.ADAE.AESDISAB" Name="AESDISAB" DataType="text" Length="1"
                  SASFieldName="AESDISAB">
            <Description>
               <TranslatedText xml:lang="en">Persist or Signif Disability/Incapacity</TranslatedText>
            </Description>
            <CodeListRef CodeListOID="CL.YN"/>
            <def:Origin Type="Derived"/>
         </ItemDef>
         <ItemDef OID="IT.ADAE.AESDTH" Name="AESDTH" DataType="text" Length="1"
                  SASFieldName="AESDTH">
            <Description>
               <TranslatedText xml:lang="en">Results in Death</TranslatedText>
            </Description>
            <CodeListRef CodeListOID="CL.YN"/>
            <def:Origin Type="Derived"/>
         </ItemDef>
         <ItemDef OID="IT.ADAE.AESHOSP" Name="AESHOSP" DataType="text" Length="1"
                  SASFieldName="AESHOSP">
            <Description>
               <TranslatedText xml:lang="en">Requires or Prolongs Hospitalization</TranslatedText>
            </Description>
            <CodeListRef CodeListOID="CL.YN"/>
            <def:Origin Type="Derived"/>
         </ItemDef>
         <ItemDef OID="IT.ADAE.AESLIFE" Name="AESLIFE" DataType="text" Length="1"
                  SASFieldName="AESLIFE">
            <Description>
               <TranslatedText xml:lang="en">Is Life Threatening</TranslatedText>
            </Description>
            <CodeListRef CodeListOID="CL.YN"/>
            <def:Origin Type="Derived"/>
         </ItemDef>
         <ItemDef OID="IT.ADAE.AESOD" Name="AESOD" DataType="text" Length="1"
                  SASFieldName="AESOD">
            <Description>
               <TranslatedText xml:lang="en">Occurred with Overdose</TranslatedText>
            </Description>
            <CodeListRef CodeListOID="CL.YN"/>
            <def:Origin Type="Derived"/>
         </ItemDef>
         <ItemDef OID="IT.ADAE.AEREL" Name="AEREL" DataType="text" Length="8"
                  SASFieldName="AEREL">
            <Description>
               <TranslatedText xml:lang="en">Causality</TranslatedText>
            </Description>
            <CodeListRef CodeListOID="CL.AECAUS"/>
            <def:Origin Type="Derived"/>
         </ItemDef>
         <ItemDef OID="IT.ADAE.AEACN" Name="AEACN" DataType="text" Length="1"
                  SASFieldName="AEACN">
            <Description>
               <TranslatedText xml:lang="en">Action Taken with Study Treatment</TranslatedText>
            </Description>
            <def:Origin Type="Derived"/>
         </ItemDef>
         <ItemDef OID="IT.ADAE.AEOUT" Name="AEOUT" DataType="text" Length="26"
                  SASFieldName="AEOUT">
            <Description>
               <TranslatedText xml:lang="en">Outcome of Adverse Event</TranslatedText>
            </Description>
            <CodeListRef CodeListOID="CL.OUT"/>
            <def:Origin Type="Derived"/>
         </ItemDef>
         <ItemDef OID="IT.ADAE.AESEQ" Name="AESEQ" DataType="integer" Length="8"
                  SASFieldName="AESEQ">
            <Description>
               <TranslatedText xml:lang="en">Sequence Number</TranslatedText>
            </Description>
            <def:Origin Type="Derived"/>
         </ItemDef>
         <ItemDef OID="IT.ADAE.TRTEMFL" Name="TRTEMFL" DataType="text" Length="1"
                  SASFieldName="TRTEMFL">
            <Description>
               <TranslatedText xml:lang="en">Treatment Emergent Analysis Flag</TranslatedText>
            </Description>
            <CodeListRef CodeListOID="CL.YN"/>
            <def:Origin Type="Derived"/>
         </ItemDef>
         <ItemDef OID="IT.ADAE.AOCCFL" Name="AOCCFL" DataType="text" Length="1"
                  SASFieldName="AOCCFL">
            <Description>
               <TranslatedText xml:lang="en">1st Occurrence of Any AE Flag</TranslatedText>
            </Description>
            <CodeListRef CodeListOID="CL.Y_BLANK"/>
            <def:Origin Type="Derived"/>
         </ItemDef>
         <ItemDef OID="IT.ADAE.AOCCSFL" Name="AOCCSFL" DataType="text" Length="1"
                  SASFieldName="AOCCSFL">
            <Description>
               <TranslatedText xml:lang="en">1st Occurrence of SOC Flag</TranslatedText>
            </Description>
            <CodeListRef CodeListOID="CL.Y_BLANK"/>
            <def:Origin Type="Derived"/>
         </ItemDef>
         <ItemDef OID="IT.ADAE.AOCCPFL" Name="AOCCPFL" DataType="text" Length="1"
                  SASFieldName="AOCCPFL">
            <Description>
               <TranslatedText xml:lang="en">1st Occurrence of Preferred Term Flag</TranslatedText>
            </Description>
            <CodeListRef CodeListOID="CL.Y_BLANK"/>
            <def:Origin Type="Derived"/>
         </ItemDef>
         <ItemDef OID="IT.ADAE.AOCC02FL" Name="AOCC02FL" DataType="text" Length="1"
                  SASFieldName="AOCC02FL">
            <Description>
               <TranslatedText xml:lang="en">1st Occurrence 02 Flag for Serious</TranslatedText>
            </Description>
            <CodeListRef CodeListOID="CL.Y_BLANK"/>
            <def:Origin Type="Derived"/>
         </ItemDef>
         <ItemDef OID="IT.ADAE.AOCC03FL" Name="AOCC03FL" DataType="text" Length="1"
                  SASFieldName="AOCC03FL">
            <Description>
               <TranslatedText xml:lang="en">1st Occurrence 03 Flag for Serious SOC</TranslatedText>
            </Description>
            <CodeListRef CodeListOID="CL.Y_BLANK"/>
            <def:Origin Type="Derived"/>
         </ItemDef>
         <ItemDef OID="IT.ADAE.AOCC04FL" Name="AOCC04FL" DataType="text" Length="1"
                  SASFieldName="AOCC04FL">
            <Description>
               <TranslatedText xml:lang="en">1st Occurrence 04 Flag for Serious PT</TranslatedText>
            </Description>
            <CodeListRef CodeListOID="CL.Y_BLANK"/>
            <def:Origin Type="Derived"/>
         </ItemDef>
         <ItemDef OID="IT.ADAE.CQ01NAM" Name="CQ01NAM" DataType="text" Length="19"
                  SASFieldName="CQ01NAM">
            <Description>
               <TranslatedText xml:lang="en">Customized Query 01 Name</TranslatedText>
            </Description>
            <def:Origin Type="Derived"/>
         </ItemDef>
         <ItemDef OID="IT.ADAE.AOCC01FL" Name="AOCC01FL" DataType="text" Length="1"
                  SASFieldName="AOCC01FL">
            <Description>
               <TranslatedText xml:lang="en">1st Occurrence 01 Flag for CQ01</TranslatedText>
            </Description>
            <CodeListRef CodeListOID="CL.Y_BLANK"/>
            <def:Origin Type="Derived"/>
         </ItemDef>
         <ItemDef OID="IT.ADCIBC.STUDYID" Name="STUDYID" DataType="text" Length="12"
                  SASFieldName="STUDYID">
            <Description>
               <TranslatedText xml:lang="en">Study Identifier</TranslatedText>
            </Description>
            <def:Origin Type="Derived"/>
         </ItemDef>
         <ItemDef OID="IT.ADCIBC.SITEID" Name="SITEID" DataType="text" Length="3"
                  SASFieldName="SITEID">
            <Description>
               <TranslatedText xml:lang="en">Study Site Identifier</TranslatedText>
            </Description>
            <def:Origin Type="Derived"/>
         </ItemDef>
         <ItemDef OID="IT.ADCIBC.SITEGR1" Name="SITEGR1" DataType="text" Length="3"
                  SASFieldName="SITEGR1">
            <Description>
               <TranslatedText xml:lang="en">Pooled Site Group 1</TranslatedText>
            </Description>
            <def:Origin Type="Derived"/>
         </ItemDef>
         <ItemDef OID="IT.ADCIBC.USUBJID" Name="USUBJID" DataType="text" Length="11"
                  SASFieldName="USUBJID">
            <Description>
               <TranslatedText xml:lang="en">Unique Subject Identifier</TranslatedText>
            </Description>
            <def:Origin Type="Derived"/>
         </ItemDef>
         <ItemDef OID="IT.ADCIBC.TRTSDT" Name="TRTSDT" DataType="integer" Length="8"
                  SASFieldName="TRTSDT"
                  def:DisplayFormat="DATE9.">
            <Description>
               <TranslatedText xml:lang="en">Date of First Exposure to Treatment</TranslatedText>
            </Description>
            <def:Origin Type="Derived"/>
         </ItemDef>
         <ItemDef OID="IT.ADCIBC.TRTEDT" Name="TRTEDT" DataType="integer" Length="8"
                  SASFieldName="TRTEDT"
                  def:DisplayFormat="DATE9.">
            <Description>
               <TranslatedText xml:lang="en">Date of Last Exposure to Treatment</TranslatedText>
            </Description>
            <def:Origin Type="Derived"/>
         </ItemDef>
         <ItemDef OID="IT.ADCIBC.TRTP" Name="TRTP" DataType="text" Length="20"
                  SASFieldName="TRTP">
            <Description>
               <TranslatedText xml:lang="en">Planned Treatment</TranslatedText>
            </Description>
            <CodeListRef CodeListOID="CL.ARM"/>
            <def:Origin Type="Derived"/>
         </ItemDef>
         <ItemDef OID="IT.ADCIBC.TRTPN" Name="TRTPN" DataType="integer" Length="8"
                  SASFieldName="TRTPN">
            <Description>
               <TranslatedText xml:lang="en">Planned Treatment (N)</TranslatedText>
            </Description>
            <CodeListRef CodeListOID="CL.ARMN"/>
            <def:Origin Type="Derived"/>
         </ItemDef>
         <ItemDef OID="IT.ADCIBC.AGE" Name="AGE" DataType="integer" Length="8" SASFieldName="AGE">
            <Description>
               <TranslatedText xml:lang="en">Age</TranslatedText>
            </Description>
            <def:Origin Type="Derived"/>
         </ItemDef>
         <ItemDef OID="IT.ADCIBC.AGEGR1" Name="AGEGR1" DataType="text" Length="5"
                  SASFieldName="AGEGR1">
            <Description>
               <TranslatedText xml:lang="en">Pooled Age Group 1</TranslatedText>
            </Description>
            <CodeListRef CodeListOID="CL.AGEGR1"/>
            <def:Origin Type="Derived"/>
         </ItemDef>
         <ItemDef OID="IT.ADCIBC.AGEGR1N" Name="AGEGR1N" DataType="integer" Length="8"
                  SASFieldName="AGEGR1N">
            <Description>
               <TranslatedText xml:lang="en">Pooled Age Group 1 (N)</TranslatedText>
            </Description>
            <CodeListRef CodeListOID="CL.AGEGR1N"/>
            <def:Origin Type="Derived"/>
         </ItemDef>
         <ItemDef OID="IT.ADCIBC.RACE" Name="RACE" DataType="text" Length="32"
                  SASFieldName="RACE">
            <Description>
               <TranslatedText xml:lang="en">Race</TranslatedText>
            </Description>
            <CodeListRef CodeListOID="CL.RACE"/>
            <def:Origin Type="Derived"/>
         </ItemDef>
         <ItemDef OID="IT.ADCIBC.RACEN" Name="RACEN" DataType="integer" Length="8"
                  SASFieldName="RACEN">
            <Description>
               <TranslatedText xml:lang="en">Race (N)</TranslatedText>
            </Description>
            <CodeListRef CodeListOID="CL.RACEN"/>
            <def:Origin Type="Derived"/>
         </ItemDef>
         <ItemDef OID="IT.ADCIBC.SEX" Name="SEX" DataType="text" Length="1" SASFieldName="SEX">
            <Description>
               <TranslatedText xml:lang="en">Sex</TranslatedText>
            </Description>
            <CodeListRef CodeListOID="CL.SEX"/>
            <def:Origin Type="Derived"/>
         </ItemDef>
         <ItemDef OID="IT.ADCIBC.ITTFL" Name="ITTFL" DataType="text" Length="1"
                  SASFieldName="ITTFL">
            <Description>
               <TranslatedText xml:lang="en">Intent-to-Treat Population Flag</TranslatedText>
            </Description>
            <CodeListRef CodeListOID="CL.YN"/>
            <def:Origin Type="Derived"/>
         </ItemDef>
         <ItemDef OID="IT.ADCIBC.EFFFL" Name="EFFFL" DataType="text" Length="1"
                  SASFieldName="EFFFL">
            <Description>
               <TranslatedText xml:lang="en">Efficacy Population Flag</TranslatedText>
            </Description>
            <CodeListRef CodeListOID="CL.YN"/>
            <def:Origin Type="Derived"/>
         </ItemDef>
         <ItemDef OID="IT.ADCIBC.COMP24FL" Name="COMP24FL" DataType="text" Length="1"
                  SASFieldName="COMP24FL">
            <Description>
               <TranslatedText xml:lang="en">Completers of Week 24 Population Flag</TranslatedText>
            </Description>
            <CodeListRef CodeListOID="CL.YN"/>
            <def:Origin Type="Derived"/>
         </ItemDef>
         <ItemDef OID="IT.ADCIBC.AVISIT" Name="AVISIT" DataType="text" Length="16"
                  SASFieldName="AVISIT">
            <Description>
               <TranslatedText xml:lang="en">Analysis Visit</TranslatedText>
            </Description>
            <CodeListRef CodeListOID="CL.AVISIT"/>
            <def:Origin Type="Derived"/>
         </ItemDef>
         <ItemDef OID="IT.ADCIBC.AVISITN" Name="AVISITN" DataType="integer" Length="8"
                  SASFieldName="AVISITN">
            <Description>
               <TranslatedText xml:lang="en">Analysis Visit (N)</TranslatedText>
            </Description>
            <CodeListRef CodeListOID="CL.AVISITN"/>
            <def:Origin Type="Derived"/>
         </ItemDef>
         <ItemDef OID="IT.ADCIBC.VISIT" Name="VISIT" DataType="text" Length="19"
                  SASFieldName="VISIT">
            <Description>
               <TranslatedText xml:lang="en">Visit Name</TranslatedText>
            </Description>
            <CodeListRef CodeListOID="CL.VISIT"/>
            <def:Origin Type="Derived"/>
         </ItemDef>
         <ItemDef OID="IT.ADCIBC.VISITNUM" Name="VISITNUM" DataType="float" Length="8"
                  SignificantDigits="1"
                  SASFieldName="VISITNUM">
            <Description>
               <TranslatedText xml:lang="en">Visit Number</TranslatedText>
            </Description>
            <CodeListRef CodeListOID="CL.VISITNUM"/>
            <def:Origin Type="Derived"/>
         </ItemDef>
         <ItemDef OID="IT.ADCIBC.ADY" Name="ADY" DataType="integer" Length="8" SASFieldName="ADY">
            <Description>
               <TranslatedText xml:lang="en">Analysis Relative Day</TranslatedText>
            </Description>
            <def:Origin Type="Derived"/>
         </ItemDef>
         <ItemDef OID="IT.ADCIBC.ADT" Name="ADT" DataType="integer" Length="8" SASFieldName="ADT"
                  def:DisplayFormat="DATE9.">
            <Description>
               <TranslatedText xml:lang="en">Analysis Date</TranslatedText>
            </Description>
            <def:Origin Type="Derived"/>
         </ItemDef>
         <ItemDef OID="IT.ADCIBC.PARAMCD" Name="PARAMCD" DataType="text" Length="8"
                  SASFieldName="PARAMCD">
            <Description>
               <TranslatedText xml:lang="en">Parameter Code</TranslatedText>
            </Description>
            <CodeListRef CodeListOID="CL.PARAMCD_ADQSCIBC"/>
            <def:Origin Type="Derived"/>
         </ItemDef>
         <ItemDef OID="IT.ADCIBC.PARAM" Name="PARAM" DataType="text" Length="100"
                  SASFieldName="PARAM">
            <Description>
               <TranslatedText xml:lang="en">Parameter</TranslatedText>
            </Description>
            <CodeListRef CodeListOID="CL.PARAM_ADQSCIBC"/>
            <def:Origin Type="Derived"/>
         </ItemDef>
         <ItemDef OID="IT.ADCIBC.PARAMN" Name="PARAMN" DataType="integer" Length="8"
                  SASFieldName="PARAMN">
            <Description>
               <TranslatedText xml:lang="en">Parameter (N)</TranslatedText>
            </Description>
            <CodeListRef CodeListOID="CL.PARAMN_ADQSCIBC"/>
            <def:Origin Type="Derived"/>
         </ItemDef>
         <ItemDef OID="IT.ADCIBC.AVAL" Name="AVAL" DataType="integer" Length="8"
                  SASFieldName="AVAL">
            <Description>
               <TranslatedText xml:lang="en">Analysis Value</TranslatedText>
            </Description>
            <def:Origin Type="Derived"/>
         </ItemDef>
         <ItemDef OID="IT.ADCIBC.ANL01FL" Name="ANL01FL" DataType="text" Length="1"
                  SASFieldName="ANL01FL">
            <Description>
               <TranslatedText xml:lang="en">Analysis Flag 01</TranslatedText>
            </Description>
            <CodeListRef CodeListOID="CL.Y_BLANK"/>
            <def:Origin Type="Derived"/>
         </ItemDef>
         <ItemDef OID="IT.ADCIBC.DTYPE" Name="DTYPE" DataType="text" Length="7"
                  SASFieldName="DTYPE">
            <Description>
               <TranslatedText xml:lang="en">Derivation Type</TranslatedText>
            </Description>
            <CodeListRef CodeListOID="CL.DTYPE"/>
            <def:Origin Type="Derived"/>
         </ItemDef>
         <ItemDef OID="IT.ADCIBC.AWRANGE" Name="AWRANGE" DataType="text" Length="9"
                  SASFieldName="AWRANGE">
            <Description>
               <TranslatedText xml:lang="en">Analysis Window Valid Relative Range</TranslatedText>
            </Description>
            <def:Origin Type="Derived"/>
         </ItemDef>
         <ItemDef OID="IT.ADCIBC.AWTARGET" Name="AWTARGET" DataType="integer" Length="8"
                  SASFieldName="AWTARGET">
            <Description>
               <TranslatedText xml:lang="en">Analysis Window Target</TranslatedText>
            </Description>
            <def:Origin Type="Derived"/>
         </ItemDef>
         <ItemDef OID="IT.ADCIBC.AWTDIFF" Name="AWTDIFF" DataType="integer" Length="8"
                  SASFieldName="AWTDIFF">
            <Description>
               <TranslatedText xml:lang="en">Analysis Window Diff from Target</TranslatedText>
            </Description>
            <def:Origin Type="Derived"/>
         </ItemDef>
         <ItemDef OID="IT.ADCIBC.AWLO" Name="AWLO" DataType="integer" Length="8"
                  SASFieldName="AWLO">
            <Description>
               <TranslatedText xml:lang="en">Analysis Window Beginning Timepoint</TranslatedText>
            </Description>
            <def:Origin Type="Derived"/>
         </ItemDef>
         <ItemDef OID="IT.ADCIBC.AWHI" Name="AWHI" DataType="integer" Length="8"
                  SASFieldName="AWHI">
            <Description>
               <TranslatedText xml:lang="en">Analysis Window Ending Timepoint</TranslatedText>
            </Description>
            <def:Origin Type="Derived"/>
         </ItemDef>
         <ItemDef OID="IT.ADCIBC.AWU" Name="AWU" DataType="text" Length="4" SASFieldName="AWU">
            <Description>
               <TranslatedText xml:lang="en">Analysis Window Unit</TranslatedText>
            </Description>
            <CodeListRef CodeListOID="CL.AWU"/>
            <def:Origin Type="Derived"/>
         </ItemDef>
         <ItemDef OID="IT.ADCIBC.QSSEQ" Name="QSSEQ" DataType="integer" Length="8"
                  SASFieldName="QSSEQ">
            <Description>
               <TranslatedText xml:lang="en">Sequence Number</TranslatedText>
            </Description>
            <def:Origin Type="Derived"/>
         </ItemDef>
         <ItemDef OID="IT.ADLBC.STUDYID" Name="STUDYID" DataType="text" Length="12"
                  SASFieldName="STUDYID">
            <Description>
               <TranslatedText xml:lang="en">Study Identifier</TranslatedText>
            </Description>
            <def:Origin Type="Derived"/>
         </ItemDef>
         <ItemDef OID="IT.ADLBC.SUBJID" Name="SUBJID" DataType="text" Length="4"
                  SASFieldName="SUBJID">
            <Description>
               <TranslatedText xml:lang="en">Subject Identifier for the Study</TranslatedText>
            </Description>
            <def:Origin Type="Derived"/>
         </ItemDef>
         <ItemDef OID="IT.ADLBC.USUBJID" Name="USUBJID" DataType="text" Length="11"
                  SASFieldName="USUBJID">
            <Description>
               <TranslatedText xml:lang="en">Unique Subject Identifier</TranslatedText>
            </Description>
            <def:Origin Type="Derived"/>
         </ItemDef>
         <ItemDef OID="IT.ADLBC.TRTP" Name="TRTP" DataType="text" Length="20" SASFieldName="TRTP">
            <Description>
               <TranslatedText xml:lang="en">Planned Treatment</TranslatedText>
            </Description>
            <CodeListRef CodeListOID="CL.ARM"/>
            <def:Origin Type="Derived"/>
         </ItemDef>
         <ItemDef OID="IT.ADLBC.TRTPN" Name="TRTPN" DataType="integer" Length="8"
                  SASFieldName="TRTPN">
            <Description>
               <TranslatedText xml:lang="en">Planned Treatment (N)</TranslatedText>
            </Description>
            <CodeListRef CodeListOID="CL.ARMN"/>
            <def:Origin Type="Derived"/>
         </ItemDef>
         <ItemDef OID="IT.ADLBC.TRTA" Name="TRTA" DataType="text" Length="20" SASFieldName="TRTA">
            <Description>
               <TranslatedText xml:lang="en">Actual Treatment</TranslatedText>
            </Description>
            <CodeListRef CodeListOID="CL.ARM"/>
            <def:Origin Type="Derived"/>
         </ItemDef>
         <ItemDef OID="IT.ADLBC.TRTAN" Name="TRTAN" DataType="integer" Length="8"
                  SASFieldName="TRTAN">
            <Description>
               <TranslatedText xml:lang="en">Actual Treatment (N)</TranslatedText>
            </Description>
            <CodeListRef CodeListOID="CL.ARMN"/>
            <def:Origin Type="Derived"/>
         </ItemDef>
         <ItemDef OID="IT.ADLBC.TRTSDT" Name="TRTSDT" DataType="integer" Length="8"
                  SASFieldName="TRTSDT"
                  def:DisplayFormat="DATE9.">
            <Description>
               <TranslatedText xml:lang="en">Date of First Exposure to Treatment</TranslatedText>
            </Description>
            <def:Origin Type="Derived"/>
         </ItemDef>
         <ItemDef OID="IT.ADLBC.TRTEDT" Name="TRTEDT" DataType="integer" Length="8"
                  SASFieldName="TRTEDT"
                  def:DisplayFormat="DATE9.">
            <Description>
               <TranslatedText xml:lang="en">Date of Last Exposure to Treatment</TranslatedText>
            </Description>
            <def:Origin Type="Derived"/>
         </ItemDef>
         <ItemDef OID="IT.ADLBC.AGE" Name="AGE" DataType="integer" Length="8" SASFieldName="AGE">
            <Description>
               <TranslatedText xml:lang="en">Age</TranslatedText>
            </Description>
            <def:Origin Type="Derived"/>
         </ItemDef>
         <ItemDef OID="IT.ADLBC.AGEGR1" Name="AGEGR1" DataType="text" Length="5"
                  SASFieldName="AGEGR1">
            <Description>
               <TranslatedText xml:lang="en">Pooled Age Group 1</TranslatedText>
            </Description>
            <CodeListRef CodeListOID="CL.AGEGR1"/>
            <def:Origin Type="Derived"/>
         </ItemDef>
         <ItemDef OID="IT.ADLBC.AGEGR1N" Name="AGEGR1N" DataType="integer" Length="8"
                  SASFieldName="AGEGR1N">
            <Description>
               <TranslatedText xml:lang="en">Pooled Age Group 1 (N)</TranslatedText>
            </Description>
            <CodeListRef CodeListOID="CL.AGEGR1N"/>
            <def:Origin Type="Derived"/>
         </ItemDef>
         <ItemDef OID="IT.ADLBC.RACE" Name="RACE" DataType="text" Length="32" SASFieldName="RACE">
            <Description>
               <TranslatedText xml:lang="en">Race</TranslatedText>
            </Description>
            <CodeListRef CodeListOID="CL.RACE"/>
            <def:Origin Type="Derived"/>
         </ItemDef>
         <ItemDef OID="IT.ADLBC.RACEN" Name="RACEN" DataType="integer" Length="8"
                  SASFieldName="RACEN">
            <Description>
               <TranslatedText xml:lang="en">Race (N)</TranslatedText>
            </Description>
            <CodeListRef CodeListOID="CL.RACEN"/>
            <def:Origin Type="Derived"/>
         </ItemDef>
         <ItemDef OID="IT.ADLBC.SEX" Name="SEX" DataType="text" Length="1" SASFieldName="SEX">
            <Description>
               <TranslatedText xml:lang="en">Sex</TranslatedText>
            </Description>
            <CodeListRef CodeListOID="CL.SEX"/>
            <def:Origin Type="Derived"/>
         </ItemDef>
         <ItemDef OID="IT.ADLBC.COMP24FL" Name="COMP24FL" DataType="text" Length="1"
                  SASFieldName="COMP24FL">
            <Description>
               <TranslatedText xml:lang="en">Completers of Week 24 Population Flag</TranslatedText>
            </Description>
            <CodeListRef CodeListOID="CL.YN"/>
            <def:Origin Type="Derived"/>
         </ItemDef>
         <ItemDef OID="IT.ADLBC.DSRAEFL" Name="DSRAEFL" DataType="text" Length="1"
                  SASFieldName="DSRAEFL">
            <Description>
               <TranslatedText xml:lang="en">Discontinued due to AE?</TranslatedText>
            </Description>
            <CodeListRef CodeListOID="CL.YN"/>
            <def:Origin Type="Derived"/>
         </ItemDef>
         <ItemDef OID="IT.ADLBC.SAFFL" Name="SAFFL" DataType="text" Length="1"
                  SASFieldName="SAFFL">
            <Description>
               <TranslatedText xml:lang="en">Safety Population Flag</TranslatedText>
            </Description>
            <CodeListRef CodeListOID="CL.YN"/>
            <def:Origin Type="Derived"/>
         </ItemDef>
         <ItemDef OID="IT.ADLBC.AVISIT" Name="AVISIT" DataType="text" Length="16"
                  SASFieldName="AVISIT">
            <Description>
               <TranslatedText xml:lang="en">Analysis Visit</TranslatedText>
            </Description>
            <CodeListRef CodeListOID="CL.AVISIT"/>
            <def:Origin Type="Derived"/>
         </ItemDef>
         <ItemDef OID="IT.ADLBC.AVISITN" Name="AVISITN" DataType="integer" Length="8"
                  SASFieldName="AVISITN">
            <Description>
               <TranslatedText xml:lang="en">Analysis Visit (N)</TranslatedText>
            </Description>
            <CodeListRef CodeListOID="CL.AVISITN"/>
            <def:Origin Type="Derived"/>
         </ItemDef>
         <ItemDef OID="IT.ADLBC.ADY" Name="ADY" DataType="integer" Length="8" SASFieldName="ADY">
            <Description>
               <TranslatedText xml:lang="en">Analysis Relative Day</TranslatedText>
            </Description>
            <def:Origin Type="Derived"/>
         </ItemDef>
         <ItemDef OID="IT.ADLBC.ADT" Name="ADT" DataType="integer" Length="8" SASFieldName="ADT"
                  def:DisplayFormat="DATE9.">
            <Description>
               <TranslatedText xml:lang="en">Analysis Date</TranslatedText>
            </Description>
            <def:Origin Type="Derived"/>
         </ItemDef>
         <ItemDef OID="IT.ADLBC.VISIT" Name="VISIT" DataType="text" Length="19"
                  SASFieldName="VISIT">
            <Description>
               <TranslatedText xml:lang="en">Visit Name</TranslatedText>
            </Description>
            <CodeListRef CodeListOID="CL.VISIT"/>
            <def:Origin Type="Derived"/>
         </ItemDef>
         <ItemDef OID="IT.ADLBC.VISITNUM" Name="VISITNUM" DataType="float" Length="8"
                  SignificantDigits="1"
                  SASFieldName="VISITNUM">
            <Description>
               <TranslatedText xml:lang="en">Visit Number</TranslatedText>
            </Description>
            <CodeListRef CodeListOID="CL.VISITNUM"/>
            <def:Origin Type="Derived"/>
         </ItemDef>
         <ItemDef OID="IT.ADLBC.PARAM" Name="PARAM" DataType="text" Length="100"
                  SASFieldName="PARAM">
            <Description>
               <TranslatedText xml:lang="en">Parameter</TranslatedText>
            </Description>
            <CodeListRef CodeListOID="CL.PARAM_ADLBC"/>
            <def:Origin Type="Derived"/>
         </ItemDef>
         <ItemDef OID="IT.ADLBC.PARAMCD" Name="PARAMCD" DataType="text" Length="8"
                  SASFieldName="PARAMCD">
            <Description>
               <TranslatedText xml:lang="en">Parameter Code</TranslatedText>
            </Description>
            <CodeListRef CodeListOID="CL.PARAMCD_ADLBC"/>
            <def:Origin Type="Derived"/>
         </ItemDef>
         <ItemDef OID="IT.ADLBC.PARAMN" Name="PARAMN" DataType="integer" Length="8"
                  SASFieldName="PARAMN">
            <Description>
               <TranslatedText xml:lang="en">Parameter (N)</TranslatedText>
            </Description>
            <CodeListRef CodeListOID="CL.PARAMN_ADLBC"/>
            <def:Origin Type="Derived"/>
         </ItemDef>
         <ItemDef OID="IT.ADLBC.PARCAT1" Name="PARCAT1" DataType="text" Length="5"
                  SASFieldName="PARCAT1">
            <Description>
               <TranslatedText xml:lang="en">Parameter Category 1</TranslatedText>
            </Description>
            <CodeListRef CodeListOID="CL.ADLBCAT"/>
            <def:Origin Type="Derived"/>
         </ItemDef>
         <ItemDef OID="IT.ADLBC.AVAL" Name="AVAL" DataType="float" Length="8"
                  SignificantDigits="5"
                  SASFieldName="AVAL">
            <Description>
               <TranslatedText xml:lang="en">Analysis Value</TranslatedText>
            </Description>
            <def:Origin Type="Derived"/>
         </ItemDef>
         <ItemDef OID="IT.ADLBC.BASE" Name="BASE" DataType="float" Length="8"
                  SignificantDigits="5"
                  SASFieldName="BASE">
            <Description>
               <TranslatedText xml:lang="en">Baseline Value</TranslatedText>
            </Description>
            <def:Origin Type="Derived"/>
         </ItemDef>
         <ItemDef OID="IT.ADLBC.CHG" Name="CHG" DataType="float" Length="8" SignificantDigits="5"
                  SASFieldName="CHG">
            <Description>
               <TranslatedText xml:lang="en">Change from Baseline</TranslatedText>
            </Description>
            <def:Origin Type="Derived"/>
         </ItemDef>
         <ItemDef OID="IT.ADLBC.A1LO" Name="A1LO" DataType="float" Length="8"
                  SignificantDigits="5"
                  SASFieldName="A1LO">
            <Description>
               <TranslatedText xml:lang="en">Analysis Range 1 Lower Limit</TranslatedText>
            </Description>
            <def:Origin Type="Derived"/>
         </ItemDef>
         <ItemDef OID="IT.ADLBC.A1HI" Name="A1HI" DataType="float" Length="8"
                  SignificantDigits="5"
                  SASFieldName="A1HI">
            <Description>
               <TranslatedText xml:lang="en">Analysis Range 1 Upper Limit</TranslatedText>
            </Description>
            <def:Origin Type="Derived"/>
         </ItemDef>
         <ItemDef OID="IT.ADLBC.R2A1LO" Name="R2A1LO" DataType="float" Length="8"
                  SignificantDigits="1"
                  SASFieldName="R2A1LO">
            <Description>
               <TranslatedText xml:lang="en">Ratio to Analysis Range 1 Lower Limit</TranslatedText>
            </Description>
            <def:Origin Type="Derived"/>
         </ItemDef>
         <ItemDef OID="IT.ADLBC.R2A1HI" Name="R2A1HI" DataType="float" Length="8"
                  SignificantDigits="1"
                  SASFieldName="R2A1HI">
            <Description>
               <TranslatedText xml:lang="en">Ratio to Analysis Range 1 Upper Limit</TranslatedText>
            </Description>
            <def:Origin Type="Derived"/>
         </ItemDef>
         <ItemDef OID="IT.ADLBC.BR2A1LO" Name="BR2A1LO" DataType="float" Length="8"
                  SignificantDigits="1"
                  SASFieldName="BR2A1LO">
            <Description>
               <TranslatedText xml:lang="en">Base Ratio to Analysis Range 1 Lower Lim</TranslatedText>
            </Description>
            <def:Origin Type="Derived"/>
         </ItemDef>
         <ItemDef OID="IT.ADLBC.BR2A1HI" Name="BR2A1HI" DataType="float" Length="8"
                  SignificantDigits="1"
                  SASFieldName="BR2A1HI">
            <Description>
               <TranslatedText xml:lang="en">Base Ratio to Analysis Range 1 Upper Lim</TranslatedText>
            </Description>
            <def:Origin Type="Derived"/>
         </ItemDef>
         <ItemDef OID="IT.ADLBC.ANL01FL" Name="ANL01FL" DataType="text" Length="1"
                  SASFieldName="ANL01FL">
            <Description>
               <TranslatedText xml:lang="en">Analysis Flag 01</TranslatedText>
            </Description>
            <CodeListRef CodeListOID="CL.Y_BLANK"/>
            <def:Origin Type="Derived"/>
         </ItemDef>
         <ItemDef OID="IT.ADLBC.ALBTRVAL" Name="ALBTRVAL" DataType="float" Length="8"
                  SignificantDigits="3"
                  SASFieldName="ALBTRVAL">
            <Description>
               <TranslatedText xml:lang="en">Amount Threshold Range</TranslatedText>
            </Description>
            <def:Origin Type="Derived"/>
         </ItemDef>
         <ItemDef OID="IT.ADLBC.ANRIND" Name="ANRIND" DataType="text" Length="1"
                  SASFieldName="ANRIND">
            <Description>
               <TranslatedText xml:lang="en">Analysis Reference Range Indicator</TranslatedText>
            </Description>
            <CodeListRef CodeListOID="CL.LNH"/>
            <def:Origin Type="Derived"/>
         </ItemDef>
         <ItemDef OID="IT.ADLBC.BNRIND" Name="BNRIND" DataType="text" Length="1"
                  SASFieldName="BNRIND">
            <Description>
               <TranslatedText xml:lang="en">Baseline Reference Range Indicator</TranslatedText>
            </Description>
            <CodeListRef CodeListOID="CL.LNH"/>
            <def:Origin Type="Derived"/>
         </ItemDef>
         <ItemDef OID="IT.ADLBC.ABLFL" Name="ABLFL" DataType="text" Length="1"
                  SASFieldName="ABLFL">
            <Description>
               <TranslatedText xml:lang="en">Baseline Record Flag</TranslatedText>
            </Description>
            <CodeListRef CodeListOID="CL.Y_BLANK"/>
            <def:Origin Type="Derived"/>
         </ItemDef>
         <ItemDef OID="IT.ADLBC.AENTMTFL" Name="AENTMTFL" DataType="text" Length="1"
                  SASFieldName="AENTMTFL">
            <Description>
               <TranslatedText xml:lang="en">Last value in treatment visit</TranslatedText>
            </Description>
            <CodeListRef CodeListOID="CL.Y_BLANK"/>
            <def:Origin Type="Derived"/>
         </ItemDef>
         <ItemDef OID="IT.ADLBC.LBSEQ" Name="LBSEQ" DataType="integer" Length="8"
                  SASFieldName="LBSEQ">
            <Description>
               <TranslatedText xml:lang="en">Sequence Number</TranslatedText>
            </Description>
            <def:Origin Type="Derived"/>
         </ItemDef>
         <ItemDef OID="IT.ADLBC.LBNRIND" Name="LBNRIND" DataType="text" Length="8"
                  SASFieldName="LBNRIND">
            <Description>
               <TranslatedText xml:lang="en">Reference Range Indicator</TranslatedText>
            </Description>
            <CodeListRef CodeListOID="CL.LBNRIND"/>
            <def:Origin Type="Derived"/>
         </ItemDef>
         <ItemDef OID="IT.ADLBC.LBSTRESN" Name="LBSTRESN" DataType="float" Length="8"
                  SignificantDigits="5"
                  SASFieldName="LBSTRESN">
            <Description>
               <TranslatedText xml:lang="en">Numeric Result/Finding in Standard Units</TranslatedText>
            </Description>
            <def:Origin Type="Derived"/>
         </ItemDef>
         <ItemDef OID="IT.ADLBCPV.STUDYID" Name="STUDYID" DataType="text" Length="12"
                  SASFieldName="STUDYID">
            <Description>
               <TranslatedText xml:lang="en">Study Identifier</TranslatedText>
            </Description>
            <def:Origin Type="Derived"/>
         </ItemDef>
         <ItemDef OID="IT.ADLBCPV.SUBJID" Name="SUBJID" DataType="text" Length="4"
                  SASFieldName="SUBJID">
            <Description>
               <TranslatedText xml:lang="en">Subject Identifier for the Study</TranslatedText>
            </Description>
            <def:Origin Type="Derived"/>
         </ItemDef>
         <ItemDef OID="IT.ADLBCPV.USUBJID" Name="USUBJID" DataType="text" Length="11"
                  SASFieldName="USUBJID">
            <Description>
               <TranslatedText xml:lang="en">Unique Subject Identifier</TranslatedText>
            </Description>
            <def:Origin Type="Derived"/>
         </ItemDef>
         <ItemDef OID="IT.ADLBCPV.TRTP" Name="TRTP" DataType="text" Length="20"
                  SASFieldName="TRTP">
            <Description>
               <TranslatedText xml:lang="en">Planned Treatment</TranslatedText>
            </Description>
            <CodeListRef CodeListOID="CL.ARM"/>
            <def:Origin Type="Derived"/>
         </ItemDef>
         <ItemDef OID="IT.ADLBCPV.TRTPN" Name="TRTPN" DataType="integer" Length="8"
                  SASFieldName="TRTPN">
            <Description>
               <TranslatedText xml:lang="en">Planned Treatment (N)</TranslatedText>
            </Description>
            <CodeListRef CodeListOID="CL.ARMN"/>
            <def:Origin Type="Derived"/>
         </ItemDef>
         <ItemDef OID="IT.ADLBCPV.TRTA" Name="TRTA" DataType="text" Length="20"
                  SASFieldName="TRTA">
            <Description>
               <TranslatedText xml:lang="en">Actual Treatment</TranslatedText>
            </Description>
            <CodeListRef CodeListOID="CL.ARM"/>
            <def:Origin Type="Derived"/>
         </ItemDef>
         <ItemDef OID="IT.ADLBCPV.TRTAN" Name="TRTAN" DataType="integer" Length="8"
                  SASFieldName="TRTAN">
            <Description>
               <TranslatedText xml:lang="en">Actual Treatment (N)</TranslatedText>
            </Description>
            <CodeListRef CodeListOID="CL.ARMN"/>
            <def:Origin Type="Derived"/>
         </ItemDef>
         <ItemDef OID="IT.ADLBCPV.TRTSDT" Name="TRTSDT" DataType="integer" Length="8"
                  SASFieldName="TRTSDT"
                  def:DisplayFormat="DATE9.">
            <Description>
               <TranslatedText xml:lang="en">Date of First Exposure to Treatment</TranslatedText>
            </Description>
            <def:Origin Type="Derived"/>
         </ItemDef>
         <ItemDef OID="IT.ADLBCPV.TRTEDT" Name="TRTEDT" DataType="integer" Length="8"
                  SASFieldName="TRTEDT"
                  def:DisplayFormat="DATE9.">
            <Description>
               <TranslatedText xml:lang="en">Date of Last Exposure to Treatment</TranslatedText>
            </Description>
            <def:Origin Type="Derived"/>
         </ItemDef>
         <ItemDef OID="IT.ADLBCPV.AGE" Name="AGE" DataType="integer" Length="8"
                  SASFieldName="AGE">
            <Description>
               <TranslatedText xml:lang="en">Age</TranslatedText>
            </Description>
            <def:Origin Type="Derived"/>
         </ItemDef>
         <ItemDef OID="IT.ADLBCPV.AGEGR1" Name="AGEGR1" DataType="text" Length="5"
                  SASFieldName="AGEGR1">
            <Description>
               <TranslatedText xml:lang="en">Pooled Age Group 1</TranslatedText>
            </Description>
            <CodeListRef CodeListOID="CL.AGEGR1"/>
            <def:Origin Type="Derived"/>
         </ItemDef>
         <ItemDef OID="IT.ADLBCPV.AGEGR1N" Name="AGEGR1N" DataType="integer" Length="8"
                  SASFieldName="AGEGR1N">
            <Description>
               <TranslatedText xml:lang="en">Pooled Age Group 1 (N)</TranslatedText>
            </Description>
            <CodeListRef CodeListOID="CL.AGEGR1N"/>
            <def:Origin Type="Derived"/>
         </ItemDef>
         <ItemDef OID="IT.ADLBCPV.RACE" Name="RACE" DataType="text" Length="32"
                  SASFieldName="RACE">
            <Description>
               <TranslatedText xml:lang="en">Race</TranslatedText>
            </Description>
            <CodeListRef CodeListOID="CL.RACE"/>
            <def:Origin Type="Derived"/>
         </ItemDef>
         <ItemDef OID="IT.ADLBCPV.RACEN" Name="RACEN" DataType="integer" Length="8"
                  SASFieldName="RACEN">
            <Description>
               <TranslatedText xml:lang="en">Race (N)</TranslatedText>
            </Description>
            <CodeListRef CodeListOID="CL.RACEN"/>
            <def:Origin Type="Derived"/>
         </ItemDef>
         <ItemDef OID="IT.ADLBCPV.SEX" Name="SEX" DataType="text" Length="1" SASFieldName="SEX">
            <Description>
               <TranslatedText xml:lang="en">Sex</TranslatedText>
            </Description>
            <CodeListRef CodeListOID="CL.SEX"/>
            <def:Origin Type="Derived"/>
         </ItemDef>
         <ItemDef OID="IT.ADLBCPV.COMP24FL" Name="COMP24FL" DataType="text" Length="1"
                  SASFieldName="COMP24FL">
            <Description>
               <TranslatedText xml:lang="en">Completers of Week 24 Population Flag</TranslatedText>
            </Description>
            <CodeListRef CodeListOID="CL.YN"/>
            <def:Origin Type="Derived"/>
         </ItemDef>
         <ItemDef OID="IT.ADLBCPV.DSRAEFL" Name="DSRAEFL" DataType="text" Length="1"
                  SASFieldName="DSRAEFL">
            <Description>
               <TranslatedText xml:lang="en">Discontinued due to AE?</TranslatedText>
            </Description>
            <CodeListRef CodeListOID="CL.YN"/>
            <def:Origin Type="Derived"/>
         </ItemDef>
         <ItemDef OID="IT.ADLBCPV.SAFFL" Name="SAFFL" DataType="text" Length="1"
                  SASFieldName="SAFFL">
            <Description>
               <TranslatedText xml:lang="en">Safety Population Flag</TranslatedText>
            </Description>
            <CodeListRef CodeListOID="CL.YN"/>
            <def:Origin Type="Derived"/>
         </ItemDef>
         <ItemDef OID="IT.ADLBCPV.AVISIT" Name="AVISIT" DataType="text" Length="16"
                  SASFieldName="AVISIT">
            <Description>
               <TranslatedText xml:lang="en">Analysis Visit</TranslatedText>
            </Description>
            <CodeListRef CodeListOID="CL.AVISIT"/>
            <def:Origin Type="Derived"/>
         </ItemDef>
         <ItemDef OID="IT.ADLBCPV.AVISITN" Name="AVISITN" DataType="integer" Length="8"
                  SASFieldName="AVISITN">
            <Description>
               <TranslatedText xml:lang="en">Analysis Visit (N)</TranslatedText>
            </Description>
            <CodeListRef CodeListOID="CL.AVISITN"/>
            <def:Origin Type="Derived"/>
         </ItemDef>
         <ItemDef OID="IT.ADLBCPV.ADY" Name="ADY" DataType="integer" Length="8"
                  SASFieldName="ADY">
            <Description>
               <TranslatedText xml:lang="en">Analysis Relative Day</TranslatedText>
            </Description>
            <def:Origin Type="Derived"/>
         </ItemDef>
         <ItemDef OID="IT.ADLBCPV.ADT" Name="ADT" DataType="integer" Length="8"
                  SASFieldName="ADT"
                  def:DisplayFormat="DATE9.">
            <Description>
               <TranslatedText xml:lang="en">Analysis Date</TranslatedText>
            </Description>
            <def:Origin Type="Derived"/>
         </ItemDef>
         <ItemDef OID="IT.ADLBCPV.VISIT" Name="VISIT" DataType="text" Length="19"
                  SASFieldName="VISIT">
            <Description>
               <TranslatedText xml:lang="en">Visit Name</TranslatedText>
            </Description>
            <CodeListRef CodeListOID="CL.VISIT"/>
            <def:Origin Type="Derived"/>
         </ItemDef>
         <ItemDef OID="IT.ADLBCPV.VISITNUM" Name="VISITNUM" DataType="float" Length="8"
                  SignificantDigits="1"
                  SASFieldName="VISITNUM">
            <Description>
               <TranslatedText xml:lang="en">Visit Number</TranslatedText>
            </Description>
            <CodeListRef CodeListOID="CL.VISITNUM"/>
            <def:Origin Type="Derived"/>
         </ItemDef>
         <ItemDef OID="IT.ADLBCPV.PARAM" Name="PARAM" DataType="text" Length="100"
                  SASFieldName="PARAM">
            <Description>
               <TranslatedText xml:lang="en">Parameter</TranslatedText>
            </Description>
            <CodeListRef CodeListOID="CL.PARAM_ADLBC"/>
            <def:Origin Type="Derived"/>
         </ItemDef>
         <ItemDef OID="IT.ADLBCPV.PARAMCD" Name="PARAMCD" DataType="text" Length="8"
                  SASFieldName="PARAMCD">
            <Description>
               <TranslatedText xml:lang="en">Parameter Code</TranslatedText>
            </Description>
            <CodeListRef CodeListOID="CL.PARAMCD_ADLBC"/>
            <def:Origin Type="Derived"/>
         </ItemDef>
         <ItemDef OID="IT.ADLBCPV.PARAMN" Name="PARAMN" DataType="integer" Length="8"
                  SASFieldName="PARAMN">
            <Description>
               <TranslatedText xml:lang="en">Parameter (N)</TranslatedText>
            </Description>
            <CodeListRef CodeListOID="CL.PARAMN_ADLBC"/>
            <def:Origin Type="Derived"/>
         </ItemDef>
         <ItemDef OID="IT.ADLBCPV.PARCAT1" Name="PARCAT1" DataType="text" Length="5"
                  SASFieldName="PARCAT1">
            <Description>
               <TranslatedText xml:lang="en">Parameter Category 1</TranslatedText>
            </Description>
            <CodeListRef CodeListOID="CL.ADLBCAT"/>
            <def:Origin Type="Derived"/>
         </ItemDef>
         <ItemDef OID="IT.ADLBCPV.AVAL" Name="AVAL" DataType="float" Length="8"
                  SignificantDigits="5"
                  SASFieldName="AVAL">
            <Description>
               <TranslatedText xml:lang="en">Analysis Value</TranslatedText>
            </Description>
            <def:Origin Type="Derived"/>
         </ItemDef>
         <ItemDef OID="IT.ADLBCPV.BASE" Name="BASE" DataType="float" Length="8"
                  SignificantDigits="5"
                  SASFieldName="BASE">
            <Description>
               <TranslatedText xml:lang="en">Baseline Value</TranslatedText>
            </Description>
            <def:Origin Type="Derived"/>
         </ItemDef>
         <ItemDef OID="IT.ADLBCPV.CHG" Name="CHG" DataType="float" Length="8"
                  SignificantDigits="5"
                  SASFieldName="CHG">
            <Description>
               <TranslatedText xml:lang="en">Change from Baseline</TranslatedText>
            </Description>
            <def:Origin Type="Derived"/>
         </ItemDef>
         <ItemDef OID="IT.ADLBCPV.A1LO" Name="A1LO" DataType="float" Length="8"
                  SignificantDigits="5"
                  SASFieldName="A1LO">
            <Description>
               <TranslatedText xml:lang="en">Analysis Range 1 Lower Limit</TranslatedText>
            </Description>
            <def:Origin Type="Derived"/>
         </ItemDef>
         <ItemDef OID="IT.ADLBCPV.A1HI" Name="A1HI" DataType="float" Length="8"
                  SignificantDigits="5"
                  SASFieldName="A1HI">
            <Description>
               <TranslatedText xml:lang="en">Analysis Range 1 Upper Limit</TranslatedText>
            </Description>
            <def:Origin Type="Derived"/>
         </ItemDef>
         <ItemDef OID="IT.ADLBCPV.R2A1LO" Name="R2A1LO" DataType="float" Length="8"
                  SignificantDigits="1"
                  SASFieldName="R2A1LO">
            <Description>
               <TranslatedText xml:lang="en">Ratio to Analysis Range 1 Lower Limit</TranslatedText>
            </Description>
            <def:Origin Type="Derived"/>
         </ItemDef>
         <ItemDef OID="IT.ADLBCPV.R2A1HI" Name="R2A1HI" DataType="float" Length="8"
                  SignificantDigits="1"
                  SASFieldName="R2A1HI">
            <Description>
               <TranslatedText xml:lang="en">Ratio to Analysis Range 1 Upper Limit</TranslatedText>
            </Description>
            <def:Origin Type="Derived"/>
         </ItemDef>
         <ItemDef OID="IT.ADLBCPV.BR2A1LO" Name="BR2A1LO" DataType="float" Length="8"
                  SignificantDigits="1"
                  SASFieldName="BR2A1LO">
            <Description>
               <TranslatedText xml:lang="en">Base Ratio to Analysis Range 1 Lower Lim</TranslatedText>
            </Description>
            <def:Origin Type="Derived"/>
         </ItemDef>
         <ItemDef OID="IT.ADLBCPV.BR2A1HI" Name="BR2A1HI" DataType="float" Length="8"
                  SignificantDigits="1"
                  SASFieldName="BR2A1HI">
            <Description>
               <TranslatedText xml:lang="en">Base Ratio to Analysis Range 1 Upper Lim</TranslatedText>
            </Description>
            <def:Origin Type="Derived"/>
         </ItemDef>
         <ItemDef OID="IT.ADLBCPV.ANL01FL" Name="ANL01FL" DataType="text" Length="1"
                  SASFieldName="ANL01FL">
            <Description>
               <TranslatedText xml:lang="en">Analysis Flag 01</TranslatedText>
            </Description>
            <CodeListRef CodeListOID="CL.Y_BLANK"/>
            <def:Origin Type="Derived"/>
         </ItemDef>
         <ItemDef OID="IT.ADLBCPV.ALBTRVAL" Name="ALBTRVAL" DataType="float" Length="8"
                  SignificantDigits="3"
                  SASFieldName="ALBTRVAL">
            <Description>
               <TranslatedText xml:lang="en">Amount Threshold Range</TranslatedText>
            </Description>
            <def:Origin Type="Derived"/>
         </ItemDef>
         <ItemDef OID="IT.ADLBCPV.ANRIND" Name="ANRIND" DataType="text" Length="1"
                  SASFieldName="ANRIND">
            <Description>
               <TranslatedText xml:lang="en">Analysis Reference Range Indicator</TranslatedText>
            </Description>
            <CodeListRef CodeListOID="CL.LNH"/>
            <def:Origin Type="Derived"/>
         </ItemDef>
         <ItemDef OID="IT.ADLBCPV.BNRIND" Name="BNRIND" DataType="text" Length="1"
                  SASFieldName="BNRIND">
            <Description>
               <TranslatedText xml:lang="en">Baseline Reference Range Indicator</TranslatedText>
            </Description>
            <CodeListRef CodeListOID="CL.LNH"/>
            <def:Origin Type="Derived"/>
         </ItemDef>
         <ItemDef OID="IT.ADLBCPV.ABLFL" Name="ABLFL" DataType="text" Length="1"
                  SASFieldName="ABLFL">
            <Description>
               <TranslatedText xml:lang="en">Baseline Record Flag</TranslatedText>
            </Description>
            <CodeListRef CodeListOID="CL.Y_BLANK"/>
            <def:Origin Type="Derived"/>
         </ItemDef>
         <ItemDef OID="IT.ADLBCPV.AENTMTFL" Name="AENTMTFL" DataType="text" Length="1"
                  SASFieldName="AENTMTFL">
            <Description>
               <TranslatedText xml:lang="en">Last value in treatment visit</TranslatedText>
            </Description>
            <CodeListRef CodeListOID="CL.Y_BLANK"/>
            <def:Origin Type="Derived"/>
         </ItemDef>
         <ItemDef OID="IT.ADLBCPV.LBSEQ" Name="LBSEQ" DataType="integer" Length="8"
                  SASFieldName="LBSEQ">
            <Description>
               <TranslatedText xml:lang="en">Sequence Number</TranslatedText>
            </Description>
            <def:Origin Type="Derived"/>
         </ItemDef>
         <ItemDef OID="IT.ADLBCPV.LBNRIND" Name="LBNRIND" DataType="text" Length="8"
                  SASFieldName="LBNRIND">
            <Description>
               <TranslatedText xml:lang="en">Reference Range Indicator</TranslatedText>
            </Description>
            <CodeListRef CodeListOID="CL.LBNRIND"/>
            <def:Origin Type="Derived"/>
         </ItemDef>
         <ItemDef OID="IT.ADLBCPV.LBSTRESN" Name="LBSTRESN" DataType="float" Length="8"
                  SignificantDigits="5"
                  SASFieldName="LBSTRESN">
            <Description>
               <TranslatedText xml:lang="en">Numeric Result/Finding in Standard Units</TranslatedText>
            </Description>
            <def:Origin Type="Derived"/>
         </ItemDef>
         <ItemDef OID="IT.ADLBH.STUDYID" Name="STUDYID" DataType="text" Length="12"
                  SASFieldName="STUDYID">
            <Description>
               <TranslatedText xml:lang="en">Study Identifier</TranslatedText>
            </Description>
            <def:Origin Type="Derived"/>
         </ItemDef>
         <ItemDef OID="IT.ADLBH.SUBJID" Name="SUBJID" DataType="text" Length="4"
                  SASFieldName="SUBJID">
            <Description>
               <TranslatedText xml:lang="en">Subject Identifier for the Study</TranslatedText>
            </Description>
            <def:Origin Type="Derived"/>
         </ItemDef>
         <ItemDef OID="IT.ADLBH.USUBJID" Name="USUBJID" DataType="text" Length="11"
                  SASFieldName="USUBJID">
            <Description>
               <TranslatedText xml:lang="en">Unique Subject Identifier</TranslatedText>
            </Description>
            <def:Origin Type="Derived"/>
         </ItemDef>
         <ItemDef OID="IT.ADLBH.TRTP" Name="TRTP" DataType="text" Length="20" SASFieldName="TRTP">
            <Description>
               <TranslatedText xml:lang="en">Planned Treatment</TranslatedText>
            </Description>
            <CodeListRef CodeListOID="CL.ARM"/>
            <def:Origin Type="Derived"/>
         </ItemDef>
         <ItemDef OID="IT.ADLBH.TRTPN" Name="TRTPN" DataType="integer" Length="8"
                  SASFieldName="TRTPN">
            <Description>
               <TranslatedText xml:lang="en">Planned Treatment (N)</TranslatedText>
            </Description>
            <CodeListRef CodeListOID="CL.ARMN"/>
            <def:Origin Type="Derived"/>
         </ItemDef>
         <ItemDef OID="IT.ADLBH.TRTA" Name="TRTA" DataType="text" Length="20" SASFieldName="TRTA">
            <Description>
               <TranslatedText xml:lang="en">Actual Treatment</TranslatedText>
            </Description>
            <CodeListRef CodeListOID="CL.ARM"/>
            <def:Origin Type="Derived"/>
         </ItemDef>
         <ItemDef OID="IT.ADLBH.TRTAN" Name="TRTAN" DataType="integer" Length="8"
                  SASFieldName="TRTAN">
            <Description>
               <TranslatedText xml:lang="en">Actual Treatment (N)</TranslatedText>
            </Description>
            <CodeListRef CodeListOID="CL.ARMN"/>
            <def:Origin Type="Derived"/>
         </ItemDef>
         <ItemDef OID="IT.ADLBH.TRTSDT" Name="TRTSDT" DataType="integer" Length="8"
                  SASFieldName="TRTSDT"
                  def:DisplayFormat="DATE9.">
            <Description>
               <TranslatedText xml:lang="en">Date of First Exposure to Treatment</TranslatedText>
            </Description>
            <def:Origin Type="Derived"/>
         </ItemDef>
         <ItemDef OID="IT.ADLBH.TRTEDT" Name="TRTEDT" DataType="integer" Length="8"
                  SASFieldName="TRTEDT"
                  def:DisplayFormat="DATE9.">
            <Description>
               <TranslatedText xml:lang="en">Date of Last Exposure to Treatment</TranslatedText>
            </Description>
            <def:Origin Type="Derived"/>
         </ItemDef>
         <ItemDef OID="IT.ADLBH.AGE" Name="AGE" DataType="integer" Length="8" SASFieldName="AGE">
            <Description>
               <TranslatedText xml:lang="en">Age</TranslatedText>
            </Description>
            <def:Origin Type="Derived"/>
         </ItemDef>
         <ItemDef OID="IT.ADLBH.AGEGR1" Name="AGEGR1" DataType="text" Length="5"
                  SASFieldName="AGEGR1">
            <Description>
               <TranslatedText xml:lang="en">Pooled Age Group 1</TranslatedText>
            </Description>
            <CodeListRef CodeListOID="CL.AGEGR1"/>
            <def:Origin Type="Derived"/>
         </ItemDef>
         <ItemDef OID="IT.ADLBH.AGEGR1N" Name="AGEGR1N" DataType="integer" Length="8"
                  SASFieldName="AGEGR1N">
            <Description>
               <TranslatedText xml:lang="en">Pooled Age Group 1 (N)</TranslatedText>
            </Description>
            <CodeListRef CodeListOID="CL.AGEGR1N"/>
            <def:Origin Type="Derived"/>
         </ItemDef>
         <ItemDef OID="IT.ADLBH.RACE" Name="RACE" DataType="text" Length="32" SASFieldName="RACE">
            <Description>
               <TranslatedText xml:lang="en">Race</TranslatedText>
            </Description>
            <CodeListRef CodeListOID="CL.RACE"/>
            <def:Origin Type="Derived"/>
         </ItemDef>
         <ItemDef OID="IT.ADLBH.RACEN" Name="RACEN" DataType="integer" Length="8"
                  SASFieldName="RACEN">
            <Description>
               <TranslatedText xml:lang="en">Race (N)</TranslatedText>
            </Description>
            <CodeListRef CodeListOID="CL.RACEN"/>
            <def:Origin Type="Derived"/>
         </ItemDef>
         <ItemDef OID="IT.ADLBH.SEX" Name="SEX" DataType="text" Length="1" SASFieldName="SEX">
            <Description>
               <TranslatedText xml:lang="en">Sex</TranslatedText>
            </Description>
            <CodeListRef CodeListOID="CL.SEX"/>
            <def:Origin Type="Derived"/>
         </ItemDef>
         <ItemDef OID="IT.ADLBH.COMP24FL" Name="COMP24FL" DataType="text" Length="1"
                  SASFieldName="COMP24FL">
            <Description>
               <TranslatedText xml:lang="en">Completers of Week 24 Population Flag</TranslatedText>
            </Description>
            <CodeListRef CodeListOID="CL.YN"/>
            <def:Origin Type="Derived"/>
         </ItemDef>
         <ItemDef OID="IT.ADLBH.DSRAEFL" Name="DSRAEFL" DataType="text" Length="1"
                  SASFieldName="DSRAEFL">
            <Description>
               <TranslatedText xml:lang="en">Discontinued due to AE?</TranslatedText>
            </Description>
            <CodeListRef CodeListOID="CL.YN"/>
            <def:Origin Type="Derived"/>
         </ItemDef>
         <ItemDef OID="IT.ADLBH.SAFFL" Name="SAFFL" DataType="text" Length="1"
                  SASFieldName="SAFFL">
            <Description>
               <TranslatedText xml:lang="en">Safety Population Flag</TranslatedText>
            </Description>
            <CodeListRef CodeListOID="CL.YN"/>
            <def:Origin Type="Derived"/>
         </ItemDef>
         <ItemDef OID="IT.ADLBH.AVISIT" Name="AVISIT" DataType="text" Length="16"
                  SASFieldName="AVISIT">
            <Description>
               <TranslatedText xml:lang="en">Analysis Visit</TranslatedText>
            </Description>
            <CodeListRef CodeListOID="CL.AVISIT"/>
            <def:Origin Type="Derived"/>
         </ItemDef>
         <ItemDef OID="IT.ADLBH.AVISITN" Name="AVISITN" DataType="integer" Length="8"
                  SASFieldName="AVISITN">
            <Description>
               <TranslatedText xml:lang="en">Analysis Visit (N)</TranslatedText>
            </Description>
            <CodeListRef CodeListOID="CL.AVISITN"/>
            <def:Origin Type="Derived"/>
         </ItemDef>
         <ItemDef OID="IT.ADLBH.ADY" Name="ADY" DataType="integer" Length="8" SASFieldName="ADY">
            <Description>
               <TranslatedText xml:lang="en">Analysis Relative Day</TranslatedText>
            </Description>
            <def:Origin Type="Derived"/>
         </ItemDef>
         <ItemDef OID="IT.ADLBH.ADT" Name="ADT" DataType="integer" Length="8" SASFieldName="ADT"
                  def:DisplayFormat="DATE9.">
            <Description>
               <TranslatedText xml:lang="en">Analysis Date</TranslatedText>
            </Description>
            <def:Origin Type="Derived"/>
         </ItemDef>
         <ItemDef OID="IT.ADLBH.VISIT" Name="VISIT" DataType="text" Length="19"
                  SASFieldName="VISIT">
            <Description>
               <TranslatedText xml:lang="en">Visit Name</TranslatedText>
            </Description>
            <CodeListRef CodeListOID="CL.VISIT"/>
            <def:Origin Type="Derived"/>
         </ItemDef>
         <ItemDef OID="IT.ADLBH.VISITNUM" Name="VISITNUM" DataType="float" Length="8"
                  SignificantDigits="1"
                  SASFieldName="VISITNUM">
            <Description>
               <TranslatedText xml:lang="en">Visit Number</TranslatedText>
            </Description>
            <CodeListRef CodeListOID="CL.VISITNUM"/>
            <def:Origin Type="Derived"/>
         </ItemDef>
         <ItemDef OID="IT.ADLBH.PARAM" Name="PARAM" DataType="text" Length="100"
                  SASFieldName="PARAM">
            <Description>
               <TranslatedText xml:lang="en">Parameter</TranslatedText>
            </Description>
            <CodeListRef CodeListOID="CL.PARAM_ADLBH"/>
            <def:Origin Type="Derived"/>
         </ItemDef>
         <ItemDef OID="IT.ADLBH.PARAMCD" Name="PARAMCD" DataType="text" Length="8"
                  SASFieldName="PARAMCD">
            <Description>
               <TranslatedText xml:lang="en">Parameter Code</TranslatedText>
            </Description>
            <CodeListRef CodeListOID="CL.PARAMCD_ADLBH"/>
            <def:Origin Type="Derived"/>
         </ItemDef>
         <ItemDef OID="IT.ADLBH.PARAMN" Name="PARAMN" DataType="integer" Length="8"
                  SASFieldName="PARAMN">
            <Description>
               <TranslatedText xml:lang="en">Parameter (N)</TranslatedText>
            </Description>
            <CodeListRef CodeListOID="CL.PARAMN_ADLBH"/>
            <def:Origin Type="Derived"/>
         </ItemDef>
         <ItemDef OID="IT.ADLBH.PARCAT1" Name="PARCAT1" DataType="text" Length="5"
                  SASFieldName="PARCAT1">
            <Description>
               <TranslatedText xml:lang="en">Parameter Category 1</TranslatedText>
            </Description>
            <CodeListRef CodeListOID="CL.ADLBCAT"/>
            <def:Origin Type="Derived"/>
         </ItemDef>
         <ItemDef OID="IT.ADLBH.AVAL" Name="AVAL" DataType="float" Length="8"
                  SignificantDigits="5"
                  SASFieldName="AVAL">
            <Description>
               <TranslatedText xml:lang="en">Analysis Value</TranslatedText>
            </Description>
            <def:Origin Type="Derived"/>
         </ItemDef>
         <ItemDef OID="IT.ADLBH.BASE" Name="BASE" DataType="float" Length="8"
                  SignificantDigits="5"
                  SASFieldName="BASE">
            <Description>
               <TranslatedText xml:lang="en">Baseline Value</TranslatedText>
            </Description>
            <def:Origin Type="Derived"/>
         </ItemDef>
         <ItemDef OID="IT.ADLBH.CHG" Name="CHG" DataType="float" Length="8" SignificantDigits="5"
                  SASFieldName="CHG">
            <Description>
               <TranslatedText xml:lang="en">Change from Baseline</TranslatedText>
            </Description>
            <def:Origin Type="Derived"/>
         </ItemDef>
         <ItemDef OID="IT.ADLBH.A1LO" Name="A1LO" DataType="float" Length="8"
                  SignificantDigits="5"
                  SASFieldName="A1LO">
            <Description>
               <TranslatedText xml:lang="en">Analysis Range 1 Lower Limit</TranslatedText>
            </Description>
            <def:Origin Type="Derived"/>
         </ItemDef>
         <ItemDef OID="IT.ADLBH.A1HI" Name="A1HI" DataType="float" Length="8"
                  SignificantDigits="5"
                  SASFieldName="A1HI">
            <Description>
               <TranslatedText xml:lang="en">Analysis Range 1 Upper Limit</TranslatedText>
            </Description>
            <def:Origin Type="Derived"/>
         </ItemDef>
         <ItemDef OID="IT.ADLBH.R2A1LO" Name="R2A1LO" DataType="float" Length="8"
                  SignificantDigits="1"
                  SASFieldName="R2A1LO">
            <Description>
               <TranslatedText xml:lang="en">Ratio to Analysis Range 1 Lower Limit</TranslatedText>
            </Description>
            <def:Origin Type="Derived"/>
         </ItemDef>
         <ItemDef OID="IT.ADLBH.R2A1HI" Name="R2A1HI" DataType="float" Length="8"
                  SignificantDigits="1"
                  SASFieldName="R2A1HI">
            <Description>
               <TranslatedText xml:lang="en">Ratio to Analysis Range 1 Upper Limit</TranslatedText>
            </Description>
            <def:Origin Type="Derived"/>
         </ItemDef>
         <ItemDef OID="IT.ADLBH.BR2A1LO" Name="BR2A1LO" DataType="float" Length="8"
                  SignificantDigits="1"
                  SASFieldName="BR2A1LO">
            <Description>
               <TranslatedText xml:lang="en">Base Ratio to Analysis Range 1 Lower Lim</TranslatedText>
            </Description>
            <def:Origin Type="Derived"/>
         </ItemDef>
         <ItemDef OID="IT.ADLBH.BR2A1HI" Name="BR2A1HI" DataType="float" Length="8"
                  SignificantDigits="1"
                  SASFieldName="BR2A1HI">
            <Description>
               <TranslatedText xml:lang="en">Base Ratio to Analysis Range 1 Upper Lim</TranslatedText>
            </Description>
            <def:Origin Type="Derived"/>
         </ItemDef>
         <ItemDef OID="IT.ADLBH.ANL01FL" Name="ANL01FL" DataType="text" Length="1"
                  SASFieldName="ANL01FL">
            <Description>
               <TranslatedText xml:lang="en">Analysis Flag 01</TranslatedText>
            </Description>
            <CodeListRef CodeListOID="CL.Y_BLANK"/>
            <def:Origin Type="Derived"/>
         </ItemDef>
         <ItemDef OID="IT.ADLBH.ALBTRVAL" Name="ALBTRVAL" DataType="float" Length="8"
                  SignificantDigits="3"
                  SASFieldName="ALBTRVAL">
            <Description>
               <TranslatedText xml:lang="en">Amount Threshold Range</TranslatedText>
            </Description>
            <def:Origin Type="Derived"/>
         </ItemDef>
         <ItemDef OID="IT.ADLBH.ANRIND" Name="ANRIND" DataType="text" Length="1"
                  SASFieldName="ANRIND">
            <Description>
               <TranslatedText xml:lang="en">Analysis Reference Range Indicator</TranslatedText>
            </Description>
            <CodeListRef CodeListOID="CL.LNH"/>
            <def:Origin Type="Derived"/>
         </ItemDef>
         <ItemDef OID="IT.ADLBH.BNRIND" Name="BNRIND" DataType="text" Length="1"
                  SASFieldName="BNRIND">
            <Description>
               <TranslatedText xml:lang="en">Baseline Reference Range Indicator</TranslatedText>
            </Description>
            <CodeListRef CodeListOID="CL.LNH"/>
            <def:Origin Type="Derived"/>
         </ItemDef>
         <ItemDef OID="IT.ADLBH.ABLFL" Name="ABLFL" DataType="text" Length="1"
                  SASFieldName="ABLFL">
            <Description>
               <TranslatedText xml:lang="en">Baseline Record Flag</TranslatedText>
            </Description>
            <CodeListRef CodeListOID="CL.Y_BLANK"/>
            <def:Origin Type="Derived"/>
         </ItemDef>
         <ItemDef OID="IT.ADLBH.AENTMTFL" Name="AENTMTFL" DataType="text" Length="1"
                  SASFieldName="AENTMTFL">
            <Description>
               <TranslatedText xml:lang="en">Last value in treatment visit</TranslatedText>
            </Description>
            <CodeListRef CodeListOID="CL.Y_BLANK"/>
            <def:Origin Type="Derived"/>
         </ItemDef>
         <ItemDef OID="IT.ADLBH.LBSEQ" Name="LBSEQ" DataType="integer" Length="8"
                  SASFieldName="LBSEQ">
            <Description>
               <TranslatedText xml:lang="en">Sequence Number</TranslatedText>
            </Description>
            <def:Origin Type="Derived"/>
         </ItemDef>
         <ItemDef OID="IT.ADLBH.LBNRIND" Name="LBNRIND" DataType="text" Length="8"
                  SASFieldName="LBNRIND">
            <Description>
               <TranslatedText xml:lang="en">Reference Range Indicator</TranslatedText>
            </Description>
            <CodeListRef CodeListOID="CL.LBNRIND"/>
            <def:Origin Type="Derived"/>
         </ItemDef>
         <ItemDef OID="IT.ADLBH.LBSTRESN" Name="LBSTRESN" DataType="float" Length="8"
                  SignificantDigits="5"
                  SASFieldName="LBSTRESN">
            <Description>
               <TranslatedText xml:lang="en">Numeric Result/Finding in Standard Units</TranslatedText>
            </Description>
            <def:Origin Type="Derived"/>
         </ItemDef>
         <ItemDef OID="IT.ADLBHPV.STUDYID" Name="STUDYID" DataType="text" Length="12"
                  SASFieldName="STUDYID">
            <Description>
               <TranslatedText xml:lang="en">Study Identifier</TranslatedText>
            </Description>
            <def:Origin Type="Derived"/>
         </ItemDef>
         <ItemDef OID="IT.ADLBHPV.SUBJID" Name="SUBJID" DataType="text" Length="4"
                  SASFieldName="SUBJID">
            <Description>
               <TranslatedText xml:lang="en">Subject Identifier for the Study</TranslatedText>
            </Description>
            <def:Origin Type="Derived"/>
         </ItemDef>
         <ItemDef OID="IT.ADLBHPV.USUBJID" Name="USUBJID" DataType="text" Length="11"
                  SASFieldName="USUBJID">
            <Description>
               <TranslatedText xml:lang="en">Unique Subject Identifier</TranslatedText>
            </Description>
            <def:Origin Type="Derived"/>
         </ItemDef>
         <ItemDef OID="IT.ADLBHPV.TRTP" Name="TRTP" DataType="text" Length="20"
                  SASFieldName="TRTP">
            <Description>
               <TranslatedText xml:lang="en">Planned Treatment</TranslatedText>
            </Description>
            <CodeListRef CodeListOID="CL.ARM"/>
            <def:Origin Type="Derived"/>
         </ItemDef>
         <ItemDef OID="IT.ADLBHPV.TRTPN" Name="TRTPN" DataType="integer" Length="8"
                  SASFieldName="TRTPN">
            <Description>
               <TranslatedText xml:lang="en">Planned Treatment (N)</TranslatedText>
            </Description>
            <CodeListRef CodeListOID="CL.ARMN"/>
            <def:Origin Type="Derived"/>
         </ItemDef>
         <ItemDef OID="IT.ADLBHPV.TRTA" Name="TRTA" DataType="text" Length="20"
                  SASFieldName="TRTA">
            <Description>
               <TranslatedText xml:lang="en">Actual Treatment</TranslatedText>
            </Description>
            <CodeListRef CodeListOID="CL.ARM"/>
            <def:Origin Type="Derived"/>
         </ItemDef>
         <ItemDef OID="IT.ADLBHPV.TRTAN" Name="TRTAN" DataType="integer" Length="8"
                  SASFieldName="TRTAN">
            <Description>
               <TranslatedText xml:lang="en">Actual Treatment (N)</TranslatedText>
            </Description>
            <CodeListRef CodeListOID="CL.ARMN"/>
            <def:Origin Type="Derived"/>
         </ItemDef>
         <ItemDef OID="IT.ADLBHPV.TRTSDT" Name="TRTSDT" DataType="integer" Length="8"
                  SASFieldName="TRTSDT"
                  def:DisplayFormat="DATE9.">
            <Description>
               <TranslatedText xml:lang="en">Date of First Exposure to Treatment</TranslatedText>
            </Description>
            <def:Origin Type="Derived"/>
         </ItemDef>
         <ItemDef OID="IT.ADLBHPV.TRTEDT" Name="TRTEDT" DataType="integer" Length="8"
                  SASFieldName="TRTEDT"
                  def:DisplayFormat="DATE9.">
            <Description>
               <TranslatedText xml:lang="en">Date of Last Exposure to Treatment</TranslatedText>
            </Description>
            <def:Origin Type="Derived"/>
         </ItemDef>
         <ItemDef OID="IT.ADLBHPV.AGE" Name="AGE" DataType="integer" Length="8"
                  SASFieldName="AGE">
            <Description>
               <TranslatedText xml:lang="en">Age</TranslatedText>
            </Description>
            <def:Origin Type="Derived"/>
         </ItemDef>
         <ItemDef OID="IT.ADLBHPV.AGEGR1" Name="AGEGR1" DataType="text" Length="5"
                  SASFieldName="AGEGR1">
            <Description>
               <TranslatedText xml:lang="en">Pooled Age Group 1</TranslatedText>
            </Description>
            <CodeListRef CodeListOID="CL.AGEGR1"/>
            <def:Origin Type="Derived"/>
         </ItemDef>
         <ItemDef OID="IT.ADLBHPV.AGEGR1N" Name="AGEGR1N" DataType="integer" Length="8"
                  SASFieldName="AGEGR1N">
            <Description>
               <TranslatedText xml:lang="en">Pooled Age Group 1 (N)</TranslatedText>
            </Description>
            <CodeListRef CodeListOID="CL.AGEGR1N"/>
            <def:Origin Type="Derived"/>
         </ItemDef>
         <ItemDef OID="IT.ADLBHPV.RACE" Name="RACE" DataType="text" Length="32"
                  SASFieldName="RACE">
            <Description>
               <TranslatedText xml:lang="en">Race</TranslatedText>
            </Description>
            <CodeListRef CodeListOID="CL.RACE"/>
            <def:Origin Type="Derived"/>
         </ItemDef>
         <ItemDef OID="IT.ADLBHPV.RACEN" Name="RACEN" DataType="integer" Length="8"
                  SASFieldName="RACEN">
            <Description>
               <TranslatedText xml:lang="en">Race (N)</TranslatedText>
            </Description>
            <CodeListRef CodeListOID="CL.RACEN"/>
            <def:Origin Type="Derived"/>
         </ItemDef>
         <ItemDef OID="IT.ADLBHPV.SEX" Name="SEX" DataType="text" Length="1" SASFieldName="SEX">
            <Description>
               <TranslatedText xml:lang="en">Sex</TranslatedText>
            </Description>
            <CodeListRef CodeListOID="CL.SEX"/>
            <def:Origin Type="Derived"/>
         </ItemDef>
         <ItemDef OID="IT.ADLBHPV.COMP24FL" Name="COMP24FL" DataType="text" Length="1"
                  SASFieldName="COMP24FL">
            <Description>
               <TranslatedText xml:lang="en">Completers of Week 24 Population Flag</TranslatedText>
            </Description>
            <CodeListRef CodeListOID="CL.YN"/>
            <def:Origin Type="Derived"/>
         </ItemDef>
         <ItemDef OID="IT.ADLBHPV.DSRAEFL" Name="DSRAEFL" DataType="text" Length="1"
                  SASFieldName="DSRAEFL">
            <Description>
               <TranslatedText xml:lang="en">Discontinued due to AE?</TranslatedText>
            </Description>
            <CodeListRef CodeListOID="CL.YN"/>
            <def:Origin Type="Derived"/>
         </ItemDef>
         <ItemDef OID="IT.ADLBHPV.SAFFL" Name="SAFFL" DataType="text" Length="1"
                  SASFieldName="SAFFL">
            <Description>
               <TranslatedText xml:lang="en">Safety Population Flag</TranslatedText>
            </Description>
            <CodeListRef CodeListOID="CL.YN"/>
            <def:Origin Type="Derived"/>
         </ItemDef>
         <ItemDef OID="IT.ADLBHPV.AVISIT" Name="AVISIT" DataType="text" Length="16"
                  SASFieldName="AVISIT">
            <Description>
               <TranslatedText xml:lang="en">Analysis Visit</TranslatedText>
            </Description>
            <CodeListRef CodeListOID="CL.AVISIT"/>
            <def:Origin Type="Derived"/>
         </ItemDef>
         <ItemDef OID="IT.ADLBHPV.AVISITN" Name="AVISITN" DataType="integer" Length="8"
                  SASFieldName="AVISITN">
            <Description>
               <TranslatedText xml:lang="en">Analysis Visit (N)</TranslatedText>
            </Description>
            <CodeListRef CodeListOID="CL.AVISITN"/>
            <def:Origin Type="Derived"/>
         </ItemDef>
         <ItemDef OID="IT.ADLBHPV.ADY" Name="ADY" DataType="integer" Length="8"
                  SASFieldName="ADY">
            <Description>
               <TranslatedText xml:lang="en">Analysis Relative Day</TranslatedText>
            </Description>
            <def:Origin Type="Derived"/>
         </ItemDef>
         <ItemDef OID="IT.ADLBHPV.ADT" Name="ADT" DataType="integer" Length="8"
                  SASFieldName="ADT"
                  def:DisplayFormat="DATE9.">
            <Description>
               <TranslatedText xml:lang="en">Analysis Date</TranslatedText>
            </Description>
            <def:Origin Type="Derived"/>
         </ItemDef>
         <ItemDef OID="IT.ADLBHPV.VISIT" Name="VISIT" DataType="text" Length="19"
                  SASFieldName="VISIT">
            <Description>
               <TranslatedText xml:lang="en">Visit Name</TranslatedText>
            </Description>
            <CodeListRef CodeListOID="CL.VISIT"/>
            <def:Origin Type="Derived"/>
         </ItemDef>
         <ItemDef OID="IT.ADLBHPV.VISITNUM" Name="VISITNUM" DataType="float" Length="8"
                  SignificantDigits="1"
                  SASFieldName="VISITNUM">
            <Description>
               <TranslatedText xml:lang="en">Visit Number</TranslatedText>
            </Description>
            <CodeListRef CodeListOID="CL.VISITNUM"/>
            <def:Origin Type="Derived"/>
         </ItemDef>
         <ItemDef OID="IT.ADLBHPV.PARAM" Name="PARAM" DataType="text" Length="100"
                  SASFieldName="PARAM">
            <Description>
               <TranslatedText xml:lang="en">Parameter</TranslatedText>
            </Description>
            <def:Origin Type="Derived"/>
         </ItemDef>
         <ItemDef OID="IT.ADLBHPV.PARAMCD" Name="PARAMCD" DataType="text" Length="8"
                  SASFieldName="PARAMCD">
            <Description>
               <TranslatedText xml:lang="en">Parameter Code</TranslatedText>
            </Description>
            <def:Origin Type="Derived"/>
         </ItemDef>
         <ItemDef OID="IT.ADLBHPV.PARAMN" Name="PARAMN" DataType="integer" Length="8"
                  SASFieldName="PARAMN">
            <Description>
               <TranslatedText xml:lang="en">Parameter (N)</TranslatedText>
            </Description>
            <def:Origin Type="Derived"/>
         </ItemDef>
         <ItemDef OID="IT.ADLBHPV.PARCAT1" Name="PARCAT1" DataType="text" Length="5"
                  SASFieldName="PARCAT1">
            <Description>
               <TranslatedText xml:lang="en">Parameter Category 1</TranslatedText>
            </Description>
            <CodeListRef CodeListOID="CL.ADLBCAT"/>
            <def:Origin Type="Derived"/>
         </ItemDef>
         <ItemDef OID="IT.ADLBHPV.AVAL" Name="AVAL" DataType="float" Length="8"
                  SignificantDigits="5"
                  SASFieldName="AVAL">
            <Description>
               <TranslatedText xml:lang="en">Analysis Value</TranslatedText>
            </Description>
            <def:Origin Type="Derived"/>
         </ItemDef>
         <ItemDef OID="IT.ADLBHPV.BASE" Name="BASE" DataType="float" Length="8"
                  SignificantDigits="5"
                  SASFieldName="BASE">
            <Description>
               <TranslatedText xml:lang="en">Baseline Value</TranslatedText>
            </Description>
            <def:Origin Type="Derived"/>
         </ItemDef>
         <ItemDef OID="IT.ADLBHPV.CHG" Name="CHG" DataType="float" Length="8"
                  SignificantDigits="5"
                  SASFieldName="CHG">
            <Description>
               <TranslatedText xml:lang="en">Change from Baseline</TranslatedText>
            </Description>
            <def:Origin Type="Derived"/>
         </ItemDef>
         <ItemDef OID="IT.ADLBHPV.A1LO" Name="A1LO" DataType="float" Length="8"
                  SignificantDigits="5"
                  SASFieldName="A1LO">
            <Description>
               <TranslatedText xml:lang="en">Analysis Range 1 Lower Limit</TranslatedText>
            </Description>
            <def:Origin Type="Derived"/>
         </ItemDef>
         <ItemDef OID="IT.ADLBHPV.A1HI" Name="A1HI" DataType="float" Length="8"
                  SignificantDigits="5"
                  SASFieldName="A1HI">
            <Description>
               <TranslatedText xml:lang="en">Analysis Range 1 Upper Limit</TranslatedText>
            </Description>
            <def:Origin Type="Derived"/>
         </ItemDef>
         <ItemDef OID="IT.ADLBHPV.R2A1LO" Name="R2A1LO" DataType="float" Length="8"
                  SignificantDigits="1"
                  SASFieldName="R2A1LO">
            <Description>
               <TranslatedText xml:lang="en">Ratio to Analysis Range 1 Lower Limit</TranslatedText>
            </Description>
            <def:Origin Type="Derived"/>
         </ItemDef>
         <ItemDef OID="IT.ADLBHPV.R2A1HI" Name="R2A1HI" DataType="float" Length="8"
                  SignificantDigits="1"
                  SASFieldName="R2A1HI">
            <Description>
               <TranslatedText xml:lang="en">Ratio to Analysis Range 1 Upper Limit</TranslatedText>
            </Description>
            <def:Origin Type="Derived"/>
         </ItemDef>
         <ItemDef OID="IT.ADLBHPV.BR2A1LO" Name="BR2A1LO" DataType="float" Length="8"
                  SignificantDigits="1"
                  SASFieldName="BR2A1LO">
            <Description>
               <TranslatedText xml:lang="en">Base Ratio to Analysis Range 1 Lower Lim</TranslatedText>
            </Description>
            <def:Origin Type="Derived"/>
         </ItemDef>
         <ItemDef OID="IT.ADLBHPV.BR2A1HI" Name="BR2A1HI" DataType="float" Length="8"
                  SignificantDigits="1"
                  SASFieldName="BR2A1HI">
            <Description>
               <TranslatedText xml:lang="en">Base Ratio to Analysis Range 1 Upper Lim</TranslatedText>
            </Description>
            <def:Origin Type="Derived"/>
         </ItemDef>
         <ItemDef OID="IT.ADLBHPV.ANL01FL" Name="ANL01FL" DataType="text" Length="1"
                  SASFieldName="ANL01FL">
            <Description>
               <TranslatedText xml:lang="en">Analysis Flag 01</TranslatedText>
            </Description>
            <CodeListRef CodeListOID="CL.Y_BLANK"/>
            <def:Origin Type="Derived"/>
         </ItemDef>
         <ItemDef OID="IT.ADLBHPV.ALBTRVAL" Name="ALBTRVAL" DataType="float" Length="8"
                  SignificantDigits="3"
                  SASFieldName="ALBTRVAL">
            <Description>
               <TranslatedText xml:lang="en">Amount Threshold Range</TranslatedText>
            </Description>
            <def:Origin Type="Derived"/>
         </ItemDef>
         <ItemDef OID="IT.ADLBHPV.ANRIND" Name="ANRIND" DataType="text" Length="1"
                  SASFieldName="ANRIND">
            <Description>
               <TranslatedText xml:lang="en">Analysis Reference Range Indicator</TranslatedText>
            </Description>
            <CodeListRef CodeListOID="CL.LNH"/>
            <def:Origin Type="Derived"/>
         </ItemDef>
         <ItemDef OID="IT.ADLBHPV.BNRIND" Name="BNRIND" DataType="text" Length="1"
                  SASFieldName="BNRIND">
            <Description>
               <TranslatedText xml:lang="en">Baseline Reference Range Indicator</TranslatedText>
            </Description>
            <CodeListRef CodeListOID="CL.LNH"/>
            <def:Origin Type="Derived"/>
         </ItemDef>
         <ItemDef OID="IT.ADLBHPV.ABLFL" Name="ABLFL" DataType="text" Length="1"
                  SASFieldName="ABLFL">
            <Description>
               <TranslatedText xml:lang="en">Baseline Record Flag</TranslatedText>
            </Description>
            <CodeListRef CodeListOID="CL.Y_BLANK"/>
            <def:Origin Type="Derived"/>
         </ItemDef>
         <ItemDef OID="IT.ADLBHPV.AENTMTFL" Name="AENTMTFL" DataType="text" Length="1"
                  SASFieldName="AENTMTFL">
            <Description>
               <TranslatedText xml:lang="en">Last value in treatment visit</TranslatedText>
            </Description>
            <CodeListRef CodeListOID="CL.Y_BLANK"/>
            <def:Origin Type="Derived"/>
         </ItemDef>
         <ItemDef OID="IT.ADLBHPV.LBSEQ" Name="LBSEQ" DataType="integer" Length="8"
                  SASFieldName="LBSEQ">
            <Description>
               <TranslatedText xml:lang="en">Sequence Number</TranslatedText>
            </Description>
            <def:Origin Type="Derived"/>
         </ItemDef>
         <ItemDef OID="IT.ADLBHPV.LBNRIND" Name="LBNRIND" DataType="text" Length="8"
                  SASFieldName="LBNRIND">
            <Description>
               <TranslatedText xml:lang="en">Reference Range Indicator</TranslatedText>
            </Description>
            <CodeListRef CodeListOID="CL.LBNRIND"/>
            <def:Origin Type="Derived"/>
         </ItemDef>
         <ItemDef OID="IT.ADLBHPV.LBSTRESN" Name="LBSTRESN" DataType="float" Length="8"
                  SignificantDigits="5"
                  SASFieldName="LBSTRESN">
            <Description>
               <TranslatedText xml:lang="en">Numeric Result/Finding in Standard Units</TranslatedText>
            </Description>
            <def:Origin Type="Derived"/>
         </ItemDef>
         <ItemDef OID="IT.ADLBHY.STUDYID" Name="STUDYID" DataType="text" Length="12"
                  SASFieldName="STUDYID">
            <Description>
               <TranslatedText xml:lang="en">Study Identifier</TranslatedText>
            </Description>
            <def:Origin Type="Derived"/>
         </ItemDef>
         <ItemDef OID="IT.ADLBHY.SUBJID" Name="SUBJID" DataType="text" Length="4"
                  SASFieldName="SUBJID">
            <Description>
               <TranslatedText xml:lang="en">Subject Identifier for the Study</TranslatedText>
            </Description>
            <def:Origin Type="Derived"/>
         </ItemDef>
         <ItemDef OID="IT.ADLBHY.USUBJID" Name="USUBJID" DataType="text" Length="11"
                  SASFieldName="USUBJID">
            <Description>
               <TranslatedText xml:lang="en">Unique Subject Identifier</TranslatedText>
            </Description>
            <def:Origin Type="Derived"/>
         </ItemDef>
         <ItemDef OID="IT.ADLBHY.TRTP" Name="TRTP" DataType="text" Length="20"
                  SASFieldName="TRTP">
            <Description>
               <TranslatedText xml:lang="en">Planned Treatment</TranslatedText>
            </Description>
            <CodeListRef CodeListOID="CL.ARM"/>
            <def:Origin Type="Derived"/>
         </ItemDef>
         <ItemDef OID="IT.ADLBHY.TRTPN" Name="TRTPN" DataType="integer" Length="8"
                  SASFieldName="TRTPN">
            <Description>
               <TranslatedText xml:lang="en">Planned Treatment (N)</TranslatedText>
            </Description>
            <CodeListRef CodeListOID="CL.ARMN"/>
            <def:Origin Type="Derived"/>
         </ItemDef>
         <ItemDef OID="IT.ADLBHY.TRTA" Name="TRTA" DataType="text" Length="20"
                  SASFieldName="TRTA">
            <Description>
               <TranslatedText xml:lang="en">Actual Treatment</TranslatedText>
            </Description>
            <CodeListRef CodeListOID="CL.ARM"/>
            <def:Origin Type="Derived"/>
         </ItemDef>
         <ItemDef OID="IT.ADLBHY.TRTAN" Name="TRTAN" DataType="integer" Length="8"
                  SASFieldName="TRTAN">
            <Description>
               <TranslatedText xml:lang="en">Actual Treatment (N)</TranslatedText>
            </Description>
            <CodeListRef CodeListOID="CL.ARMN"/>
            <def:Origin Type="Derived"/>
         </ItemDef>
         <ItemDef OID="IT.ADLBHY.TRTSDT" Name="TRTSDT" DataType="integer" Length="8"
                  SASFieldName="TRTSDT"
                  def:DisplayFormat="DATE9.">
            <Description>
               <TranslatedText xml:lang="en">Date of First Exposure to Treatment</TranslatedText>
            </Description>
            <def:Origin Type="Derived"/>
         </ItemDef>
         <ItemDef OID="IT.ADLBHY.TRTEDT" Name="TRTEDT" DataType="integer" Length="8"
                  SASFieldName="TRTEDT"
                  def:DisplayFormat="DATE9.">
            <Description>
               <TranslatedText xml:lang="en">Date of Last Exposure to Treatment</TranslatedText>
            </Description>
            <def:Origin Type="Derived"/>
         </ItemDef>
         <ItemDef OID="IT.ADLBHY.AGE" Name="AGE" DataType="integer" Length="8" SASFieldName="AGE">
            <Description>
               <TranslatedText xml:lang="en">Age</TranslatedText>
            </Description>
            <def:Origin Type="Derived"/>
         </ItemDef>
         <ItemDef OID="IT.ADLBHY.AGEGR1" Name="AGEGR1" DataType="text" Length="5"
                  SASFieldName="AGEGR1">
            <Description>
               <TranslatedText xml:lang="en">Pooled Age Group 1</TranslatedText>
            </Description>
            <CodeListRef CodeListOID="CL.AGEGR1"/>
            <def:Origin Type="Derived"/>
         </ItemDef>
         <ItemDef OID="IT.ADLBHY.AGEGR1N" Name="AGEGR1N" DataType="integer" Length="8"
                  SASFieldName="AGEGR1N">
            <Description>
               <TranslatedText xml:lang="en">Pooled Age Group 1 (N)</TranslatedText>
            </Description>
            <CodeListRef CodeListOID="CL.AGEGR1N"/>
            <def:Origin Type="Derived"/>
         </ItemDef>
         <ItemDef OID="IT.ADLBHY.RACE" Name="RACE" DataType="text" Length="32"
                  SASFieldName="RACE">
            <Description>
               <TranslatedText xml:lang="en">Race</TranslatedText>
            </Description>
            <CodeListRef CodeListOID="CL.RACE"/>
            <def:Origin Type="Derived"/>
         </ItemDef>
         <ItemDef OID="IT.ADLBHY.RACEN" Name="RACEN" DataType="integer" Length="8"
                  SASFieldName="RACEN">
            <Description>
               <TranslatedText xml:lang="en">Race (N)</TranslatedText>
            </Description>
            <CodeListRef CodeListOID="CL.RACEN"/>
            <def:Origin Type="Derived"/>
         </ItemDef>
         <ItemDef OID="IT.ADLBHY.SEX" Name="SEX" DataType="text" Length="1" SASFieldName="SEX">
            <Description>
               <TranslatedText xml:lang="en">Sex</TranslatedText>
            </Description>
            <CodeListRef CodeListOID="CL.SEX"/>
            <def:Origin Type="Derived"/>
         </ItemDef>
         <ItemDef OID="IT.ADLBHY.COMP24FL" Name="COMP24FL" DataType="text" Length="1"
                  SASFieldName="COMP24FL">
            <Description>
               <TranslatedText xml:lang="en">Completers of Week 24 Population Flag</TranslatedText>
            </Description>
            <CodeListRef CodeListOID="CL.YN"/>
            <def:Origin Type="Derived"/>
         </ItemDef>
         <ItemDef OID="IT.ADLBHY.DSRAEFL" Name="DSRAEFL" DataType="text" Length="1"
                  SASFieldName="DSRAEFL">
            <Description>
               <TranslatedText xml:lang="en">Discontinued due to AE?</TranslatedText>
            </Description>
            <CodeListRef CodeListOID="CL.YN"/>
            <def:Origin Type="Derived"/>
         </ItemDef>
         <ItemDef OID="IT.ADLBHY.SAFFL" Name="SAFFL" DataType="text" Length="1"
                  SASFieldName="SAFFL">
            <Description>
               <TranslatedText xml:lang="en">Safety Population Flag</TranslatedText>
            </Description>
            <CodeListRef CodeListOID="CL.YN"/>
            <def:Origin Type="Derived"/>
         </ItemDef>
         <ItemDef OID="IT.ADLBHY.AVISIT" Name="AVISIT" DataType="text" Length="16"
                  SASFieldName="AVISIT">
            <Description>
               <TranslatedText xml:lang="en">Analysis Visit</TranslatedText>
            </Description>
            <CodeListRef CodeListOID="CL.AVISIT"/>
            <def:Origin Type="Derived"/>
         </ItemDef>
         <ItemDef OID="IT.ADLBHY.AVISITN" Name="AVISITN" DataType="integer" Length="8"
                  SASFieldName="AVISITN">
            <Description>
               <TranslatedText xml:lang="en">Analysis Visit (N)</TranslatedText>
            </Description>
            <CodeListRef CodeListOID="CL.AVISITN"/>
            <def:Origin Type="Derived"/>
         </ItemDef>
         <ItemDef OID="IT.ADLBHY.ADY" Name="ADY" DataType="integer" Length="8" SASFieldName="ADY">
            <Description>
               <TranslatedText xml:lang="en">Analysis Relative Day</TranslatedText>
            </Description>
            <def:Origin Type="Derived"/>
         </ItemDef>
         <ItemDef OID="IT.ADLBHY.ADT" Name="ADT" DataType="integer" Length="8" SASFieldName="ADT"
                  def:DisplayFormat="DATE9.">
            <Description>
               <TranslatedText xml:lang="en">Analysis Date</TranslatedText>
            </Description>
            <def:Origin Type="Derived"/>
         </ItemDef>
         <ItemDef OID="IT.ADLBHY.VISIT" Name="VISIT" DataType="text" Length="19"
                  SASFieldName="VISIT">
            <Description>
               <TranslatedText xml:lang="en">Visit Name</TranslatedText>
            </Description>
            <CodeListRef CodeListOID="CL.VISIT"/>
            <def:Origin Type="Derived"/>
         </ItemDef>
         <ItemDef OID="IT.ADLBHY.VISITNUM" Name="VISITNUM" DataType="float" Length="8"
                  SignificantDigits="1"
                  SASFieldName="VISITNUM">
            <Description>
               <TranslatedText xml:lang="en">Visit Number</TranslatedText>
            </Description>
            <CodeListRef CodeListOID="CL.VISITNUM"/>
            <def:Origin Type="Derived"/>
         </ItemDef>
         <ItemDef OID="IT.ADLBHY.PARAMTYP" Name="PARAMTYP" DataType="text" Length="7"
                  SASFieldName="PARAMTYP">
            <Description>
               <TranslatedText xml:lang="en">Parameter Type</TranslatedText>
            </Description>
            <CodeListRef CodeListOID="CL.PARAMTYP"/>
            <def:Origin Type="Derived"/>
         </ItemDef>
         <ItemDef OID="IT.ADLBHY.PARAM" Name="PARAM" DataType="text" Length="100"
                  SASFieldName="PARAM">
            <Description>
               <TranslatedText xml:lang="en">Parameter</TranslatedText>
            </Description>
            <CodeListRef CodeListOID="CL.PARAM_ADLBHY"/>
            <def:Origin Type="Derived"/>
         </ItemDef>
         <ItemDef OID="IT.ADLBHY.PARAMCD" Name="PARAMCD" DataType="text" Length="8"
                  SASFieldName="PARAMCD">
            <Description>
               <TranslatedText xml:lang="en">Parameter Code</TranslatedText>
            </Description>
            <CodeListRef CodeListOID="CL.PARAMCD_ADLBHY"/>
            <def:Origin Type="Derived"/>
         </ItemDef>
         <ItemDef OID="IT.ADLBHY.PARAMN" Name="PARAMN" DataType="integer" Length="8"
                  SASFieldName="PARAMN">
            <Description>
               <TranslatedText xml:lang="en">Parameter (N)</TranslatedText>
            </Description>
            <CodeListRef CodeListOID="CL.PARAMN_ADLBHY"/>
            <def:Origin Type="Derived"/>
         </ItemDef>
         <ItemDef OID="IT.ADLBHY.PARCAT1" Name="PARCAT1" DataType="text" Length="5"
                  SASFieldName="PARCAT1">
            <Description>
               <TranslatedText xml:lang="en">Parameter Category 1</TranslatedText>
            </Description>
            <CodeListRef CodeListOID="CL.ADLBCAT"/>
            <def:Origin Type="Derived"/>
         </ItemDef>
         <ItemDef OID="IT.ADLBHY.AVAL" Name="AVAL" DataType="float" Length="8"
                  SignificantDigits="2"
                  SASFieldName="AVAL">
            <Description>
               <TranslatedText xml:lang="en">Analysis Value</TranslatedText>
            </Description>
            <def:Origin Type="Derived"/>
         </ItemDef>
         <ItemDef OID="IT.ADLBHY.BASE" Name="BASE" DataType="float" Length="8"
                  SignificantDigits="2"
                  SASFieldName="BASE">
            <Description>
               <TranslatedText xml:lang="en">Baseline Value</TranslatedText>
            </Description>
            <def:Origin Type="Derived"/>
         </ItemDef>
         <ItemDef OID="IT.ADLBHY.A1LO" Name="A1LO" DataType="float" Length="8"
                  SignificantDigits="1"
                  SASFieldName="A1LO">
            <Description>
               <TranslatedText xml:lang="en">Analysis Range 1 Lower Limit</TranslatedText>
            </Description>
            <def:Origin Type="Derived"/>
         </ItemDef>
         <ItemDef OID="IT.ADLBHY.A1HI" Name="A1HI" DataType="float" Length="8"
                  SignificantDigits="1"
                  SASFieldName="A1HI">
            <Description>
               <TranslatedText xml:lang="en">Analysis Range 1 Upper Limit</TranslatedText>
            </Description>
            <def:Origin Type="Derived"/>
         </ItemDef>
         <ItemDef OID="IT.ADLBHY.R2A1LO" Name="R2A1LO" DataType="float" Length="8"
                  SignificantDigits="1"
                  SASFieldName="R2A1LO">
